# time	left pressure 1[N/cm²]	left pressure 2[N/cm²]	left pressure 3[N/cm²]	left pressure 4[N/cm²]	left pressure 5[N/cm²]	left pressure 6[N/cm²]	left pressure 7[N/cm²]	left pressure 8[N/cm²]	left pressure 9[N/cm²]	left pressure 10[N/cm²]	left pressure 11[N/cm²]	left pressure 12[N/cm²]	left pressure 13[N/cm²]	left pressure 14[N/cm²]	left pressure 15[N/cm²]	left pressure 16[N/cm²]	left acceleration X[g]	left acceleration Y[g]	left acceleration Z[g]	left angular X[dps]	left angular Y[dps]	left angular Z[dps]	left total force[N]	left center of pressure X[%]	left center of pressure Y[%]	right pressure 1[N/cm²]	right pressure 2[N/cm²]	right pressure 3[N/cm²]	right pressure 4[N/cm²]	right pressure 5[N/cm²]	right pressure 6[N/cm²]	right pressure 7[N/cm²]	right pressure 8[N/cm²]	right pressure 9[N/cm²]	right pressure 10[N/cm²]	right pressure 11[N/cm²]	right pressure 12[N/cm²]	right pressure 13[N/cm²]	right pressure 14[N/cm²]	right pressure 15[N/cm²]	right pressure 16[N/cm²]	right acceleration X[g]	right acceleration Y[g]	right acceleration Z[g]	right angular X[dps]	right angular Y[dps]	right angular Z[dps]	right total force[N]	right center of pressure X[%]	right center of pressure Y[%]
0.00																										3.00	3.50	3.75	7.00	3.75	8.75	0.25	4.50	0.00	0.00	0.25	1.00	1.25	1.75	0.00	0.75	-0.149902	0.049805	0.977051	-7.910000	-3.220000	0.630000	434.00	-0.15	-0.17
0.01	3.00	4.50	4.00	6.75	5.00	12.25	0.50	6.00	0.25	0.00	0.50	1.00	2.75	1.50	0.00	0.25	-0.205078	0.067871	0.960449	-28.420000	0.350000	-5.110000	535.00	-0.14	-0.18	3.25	3.50	4.25	7.25	4.00	8.75	0.25	4.25	0.00	0.00	0.00	0.75	1.25	1.75	0.00	0.75	-0.152832	0.048340	0.986328	-7.910000	-2.590000	0.700000	438.00	-0.16	-0.16
0.02	3.25	4.50	4.50	6.75	5.50	11.50	0.50	5.75	0.50	0.00	0.50	0.75	2.75	1.75	0.25	0.25	-0.203125	0.063965	0.961426	-24.360001	0.140000	-4.410000	542.00	-0.14	-0.16	3.25	3.75	4.25	7.25	4.25	8.50	0.50	4.00	0.00	0.00	0.25	0.75	1.00	1.75	0.00	0.50	-0.151855	0.046387	0.984375	-8.190000	-1.750000	0.630000	440.00	-0.17	-0.15
0.03	3.00	4.50	4.75	6.50	6.00	11.00	0.75	5.50	0.50	0.00	0.50	0.75	2.50	2.25	0.25	0.50	-0.196289	0.059082	0.964844	-22.469999	0.210000	-3.780000	543.00	-0.13	-0.15	3.50	3.75	4.25	7.25	4.75	8.25	0.25	3.75	0.00	0.00	0.50	0.75	1.25	1.75	0.00	0.50	-0.147949	0.041992	0.983398	-9.030000	-1.400000	0.420000	442.00	-0.17	-0.15
0.04	3.00	4.50	4.75	6.75	6.50	10.75	0.75	5.25	0.75	0.25	0.75	1.00	2.50	2.25	0.25	0.50	-0.197754	0.057617	0.965820	-17.710001	1.400000	-3.500000	556.00	-0.13	-0.14	3.50	2.50	4.50	7.00	4.75	8.00	0.25	3.50	0.00	0.00	0.25	0.75	1.25	1.75	0.25	0.75	-0.145020	0.047363	0.984375	-8.610000	-1.400000	0.350000	425.00	-0.16	-0.14
0.05	3.50	4.25	5.00	6.75	6.75	10.25	0.75	5.00	0.50	0.25	0.75	1.00	2.00	2.50	0.00	0.50	-0.199707	0.051758	0.962402	-7.350000	4.060000	-2.520000	547.00	-0.14	-0.14	3.50	3.50	4.25	7.00	5.00	8.00	0.50	3.00	0.00	0.00	0.50	0.50	1.00	1.75	0.25	0.75	-0.151855	0.041992	0.984375	-7.630000	-1.540000	0.490000	429.00	-0.16	-0.13
0.06																										3.50	3.50	4.50	7.25	5.25	8.00	0.50	2.75	0.00	0.25	0.50	0.75	1.00	1.75	0.25	0.75	-0.155273	0.046875	0.980469	-6.930000	-1.750000	0.490000	438.00	-0.16	-0.13
0.07	3.50	4.50	5.50	6.75	7.25	10.00	0.75	5.00	1.25	0.25	0.50	1.00	2.00	2.50	0.50	0.50	-0.199707	0.051758	0.962402	-7.350000	4.060000	-2.520000	570.00	-0.13	-0.12	3.75	3.50	4.75	7.25	5.50	7.75	0.50	2.75	0.00	0.25	0.25	0.75	1.00	1.50	0.25	0.75	-0.147949	0.041504	0.983398	-6.580000	-1.750000	0.770000	439.00	-0.17	-0.12
0.08																										3.50	3.50	4.75	7.25	5.50	7.50	0.50	2.75	0.00	0.00	0.50	0.75	1.00	1.75	0.25	0.75	-0.148438	0.041016	0.981934	-6.090000	-2.030000	0.910000	436.00	-0.16	-0.12
0.09	4.25	4.75	5.75	6.50	8.00	9.50	0.75	4.50	1.00	0.25	1.00	1.00	1.75	3.00	0.25	0.50	-0.200195	0.045410	0.954590	-3.010000	4.900000	-1.400000	577.00	-0.13	-0.11	3.75	3.50	4.75	7.25	5.50	7.50	0.50	2.50	0.00	0.25	0.50	0.50	1.00	1.75	0.25	0.50	-0.151855	0.042480	0.977539	-5.530000	-2.310000	1.260000	433.00	-0.17	-0.12
0.10	4.00	4.50	6.25	6.50	8.50	9.50	0.75	4.25	0.75	0.25	0.50	1.00	1.75	3.25	0.25	0.50	-0.192383	0.055176	0.954590	-2.520000	5.180000	-1.260000	573.00	-0.14	-0.11	3.75	3.75	4.75	7.00	5.75	7.25	0.50	2.25	0.00	0.25	0.50	1.00	1.00	1.75	0.25	0.75	-0.155762	0.043457	0.982422	-4.340000	-2.590000	1.400000	436.00	-0.16	-0.11
0.11	4.00	4.75	6.25	6.50	8.50	9.25	0.75	4.25	0.75	0.50	1.00	0.75	1.75	3.00	0.25	0.50	-0.195312	0.052734	0.953613	-2.310000	5.040000	-1.120000	576.00	-0.14	-0.11	3.75	3.50	4.50	7.00	5.75	7.25	0.50	2.25	0.00	0.25	0.50	0.50	1.00	1.25	0.50	0.75	-0.153809	0.043457	0.983887	-3.920000	-2.590000	1.680000	424.00	-0.17	-0.12
0.12	4.00	4.50	6.00	6.50	8.75	9.50	0.75	4.00	0.75	0.25	1.00	0.75	1.75	3.25	0.25	0.50	-0.197754	0.047363	0.957520	-2.170000	4.760000	-1.120000	572.00	-0.13	-0.10	4.00	3.75	5.00	7.00	5.50	7.25	0.50	2.50	0.00	0.25	0.50	0.50	1.00	1.75	0.25	0.75	-0.155273	0.043457	0.983398	-3.360000	-2.590000	1.750000	437.00	-0.17	-0.11
0.13	4.25	4.75	6.25	6.50	8.50	9.50	0.75	4.50	0.75	0.75	0.75	0.75	1.75	3.25	0.25	0.50	-0.191406	0.053223	0.953613	-2.030000	4.900000	-1.120000	587.00	-0.13	-0.11	3.75	3.25	4.50	7.00	5.75	7.00	0.50	2.25	0.00	0.25	0.75	1.00	1.00	1.50	0.25	0.75	-0.151367	0.039551	0.984863	-2.940000	-2.590000	1.890000	426.00	-0.16	-0.12
0.14	4.25	4.75	6.25	6.50	8.75	9.50	0.75	4.25	0.75	0.25	0.75	0.75	1.75	3.25	0.50	0.50	-0.194336	0.048340	0.955078	-1.820000	4.830000	-1.050000	583.00	-0.14	-0.10																									
0.15	4.00	4.50	6.50	6.50	8.75	9.25	0.75	4.50	0.50	0.50	1.00	1.00	2.00	3.25	0.50	0.50	-0.192383	0.055176	0.956543	-1.820000	5.180000	-1.260000	589.00	-0.13	-0.11	4.00	3.75	5.00	6.75	5.75	7.00	0.50	2.25	0.00	0.50	0.75	0.50	1.00	1.75	0.50	0.75	-0.151367	0.043945	0.984863	-2.520000	-2.450000	1.820000	438.00	-0.16	-0.11
0.16	4.00	4.25	6.25	6.50	8.75	9.50	0.75	4.50	1.00	0.50	1.00	0.75	1.75	3.50	0.50	0.75	-0.190918	0.053711	0.956055	-1.890000	5.040000	-1.330000	592.00	-0.12	-0.10	3.50	3.50	4.75	6.75	5.75	6.75	0.50	2.00	0.00	0.50	0.50	0.75	0.75	1.50	0.25	0.75	-0.155273	0.042969	0.978027	-2.170000	-2.450000	1.820000	414.00	-0.17	-0.11
0.17	4.00	4.50	6.75	6.50	8.75	9.25	0.75	4.25	1.00	0.50	1.00	1.00	2.00	3.25	0.25	0.50	-0.189453	0.057617	0.958496	-1.750000	4.760000	-1.330000	592.00	-0.13	-0.10	3.75	3.25	4.75	6.75	5.50	6.50	0.50	2.00	0.00	0.25	0.50	0.50	0.75	1.50	0.25	0.75	-0.144531	0.041504	0.981934	-2.030000	-2.450000	1.890000	404.00	-0.17	-0.11
0.18	4.00	4.50	6.50	6.50	9.00	9.25	0.75	4.75	1.00	0.75	1.25	1.00	2.00	3.25	0.50	0.50	-0.189453	0.053711	0.959961	-1.960000	4.900000	-1.540000	607.00	-0.12	-0.11	3.50	3.50	4.75	6.50	5.50	6.50	0.50	2.00	0.25	0.25	0.50	0.75	1.00	1.75	0.00	0.75	-0.153320	0.041504	0.979980	-2.030000	-2.520000	1.890000	409.00	-0.16	-0.11
0.19	4.00	4.75	7.00	6.50	9.00	9.25	0.75	4.50	1.25	0.50	0.75	0.75	2.00	3.25	0.50	0.50	-0.192383	0.051758	0.953125	-2.030000	4.900000	-1.470000	604.00	-0.13	-0.10	3.75	3.25	4.25	6.50	5.50	6.50	0.50	2.00	0.25	0.25	0.50	1.00	1.00	1.50	0.25	0.75	-0.150879	0.044434	0.976562	-1.960000	-2.660000	1.820000	406.00	-0.16	-0.11
0.20	4.00	4.50	6.75	6.50	9.00	9.25	0.75	4.75	0.75	0.75	1.00	1.00	2.00	3.00	0.50	0.75	-0.191406	0.051758	0.951660	-1.820000	4.760000	-1.400000	603.00	-0.13	-0.11	3.75	3.00	4.50	6.50	5.50	6.50	0.50	2.00	0.00	0.25	1.00	0.75	0.75	1.50	0.25	0.75	-0.151367	0.042480	0.980957	-2.100000	-2.940000	1.820000	404.00	-0.16	-0.11
0.21	3.75	4.75	6.50	6.50	9.00	9.50	0.75	4.75	0.75	0.50	1.00	1.00	2.25	3.25	0.25	0.75	-0.190918	0.055176	0.954590	-1.680000	4.900000	-1.400000	602.00	-0.13	-0.11	3.50	3.00	4.25	6.50	5.50	6.50	0.50	2.00	0.00	0.25	0.50	0.75	1.00	1.50	0.25	0.75	-0.145996	0.038086	0.983398	-2.170000	-3.080000	1.610000	396.00	-0.16	-0.11
0.22	3.50	4.50	6.50	6.25	9.00	9.50	0.75	5.00	1.25	0.50	1.00	1.00	2.25	3.25	0.25	0.75	-0.189941	0.051758	0.957520	-1.540000	4.760000	-1.260000	605.00	-0.12	-0.11	3.50	2.50	4.50	6.50	5.25	6.50	0.50	2.00	0.00	0.50	0.75	0.75	1.00	1.50	0.25	1.00	-0.149414	0.036621	0.982422	-2.380000	-3.290000	1.540000	398.00	-0.15	-0.11
0.23	3.50	4.50	6.50	6.25	9.00	9.50	0.75	5.00	0.75	0.50	1.00	1.00	2.25	3.00	0.50	0.75	-0.188965	0.051758	0.960938	-1.470000	4.690000	-1.190000	599.00	-0.12	-0.11	3.00	3.00	4.50	6.25	5.50	6.50	0.50	2.00	0.00	0.25	0.50	0.75	0.75	1.75	0.25	0.75	-0.150879	0.041504	0.980469	-2.520000	-3.430000	1.540000	390.00	-0.16	-0.11
0.24	3.50	4.50	6.50	6.25	9.00	9.75	0.75	5.00	1.25	0.50	1.25	1.00	2.25	3.25	0.50	0.75	-0.186523	0.051270	0.957031	-1.330000	4.900000	-1.190000	613.00	-0.11	-0.11	3.00	3.00	4.25	6.25	5.50	6.50	0.50	2.00	0.00	0.25	0.75	0.75	1.00	1.50	0.25	1.00	-0.153320	0.041016	0.984375	-2.660000	-3.640000	1.470000	392.00	-0.15	-0.11
0.25	3.50	4.25	6.25	6.50	8.75	10.00	0.75	5.25	0.75	0.50	1.25	1.00	2.50	3.00	0.50	0.50	-0.192871	0.050293	0.960938	-1.190000	4.830000	-1.120000	606.00	-0.12	-0.12	3.00	3.00	4.50	6.50	5.50	6.50	0.50	2.00	0.00	0.25	0.75	0.75	1.00	1.75	0.25	1.00	-0.151367	0.044922	0.979004	-2.730000	-3.850000	1.400000	399.00	-0.15	-0.11
0.26	3.00	4.50	6.50	6.25	8.75	10.00	0.75	5.25	1.00	0.50	1.25	1.00	2.25	3.25	0.50	0.75	-0.193359	0.057617	0.949219	-1.120000	4.620000	-0.980000	608.00	-0.11	-0.12	3.25	3.00	4.25	6.25	5.50	6.50	0.50	2.00	0.25	0.25	0.75	0.75	1.00	1.50	0.25	0.75	-0.150391	0.040527	0.978516	-2.870000	-3.990000	1.610000	396.00	-0.15	-0.11
0.27	3.00	4.25	6.25	6.25	8.75	10.00	0.75	5.50	0.25	0.50	1.25	1.00	2.50	3.00	0.50	0.75	-0.189941	0.051758	0.959961	-0.980000	4.690000	-1.120000	597.00	-0.12	-0.13	3.00	3.25	4.25	6.25	5.75	6.50	0.50	2.00	0.00	0.25	0.75	1.00	1.00	1.75	0.25	0.75	-0.155762	0.047363	0.978516	-3.080000	-4.200000	1.680000	400.00	-0.15	-0.11
0.28	2.75	4.00	6.25	6.25	8.50	10.50	0.75	5.50	1.00	0.50	1.25	1.25	2.75	3.00	0.50	0.75	-0.189941	0.051758	0.959961	-0.980000	4.690000	-1.120000	609.00	-0.11	-0.13	3.00	3.00	4.25	6.00	5.75	6.50	0.50	2.00	0.00	0.25	0.50	0.75	1.00	1.50	0.25	0.75	-0.150879	0.040527	0.984375	-3.220000	-4.480000	1.540000	388.00	-0.16	-0.11
0.29	3.00	4.00	6.25	6.25	8.50	10.25	0.75	5.50	1.00	0.50	1.25	1.00	2.50	3.00	0.50	0.75	-0.190430	0.053711	0.950684	-1.050000	5.250000	-0.980000	605.00	-0.11	-0.12	3.00	3.00	4.25	6.00	5.75	6.50	0.50	2.00	0.00	0.50	0.50	1.00	1.25	1.75	0.25	1.00	-0.146973	0.040039	0.978516	-3.430000	-4.620000	1.540000	399.00	-0.15	-0.11
0.30	2.75	4.25	6.00	6.25	8.50	10.25	0.75	5.75	1.25	0.50	1.50	1.50	2.75	2.75	0.50	0.75	-0.184570	0.055176	0.956055	-0.910000	5.320000	-0.980000	616.00	-0.10	-0.13	3.00	2.75	4.00	6.00	5.75	6.50	0.50	2.25	0.00	0.50	0.75	0.75	1.25	1.75	0.25	0.75	-0.154297	0.043457	0.982422	-3.290000	-4.480000	1.400000	396.00	-0.14	-0.11
0.31	2.75	4.00	6.25	6.25	8.50	10.50	0.75	5.75	1.00	0.75	1.25	1.25	2.75	2.75	0.50	0.75	-0.193359	0.056152	0.953125	-0.980000	5.320000	-0.910000	614.00	-0.11	-0.13	3.00	3.00	4.25	6.25	5.75	6.75	0.50	2.25	0.00	0.50	1.00	0.75	1.25	1.75	0.25	0.75	-0.151367	0.042480	0.981934	-3.220000	-4.620000	1.470000	409.00	-0.15	-0.12
0.32	2.50	3.75	6.00	6.00	8.25	10.75	0.75	5.75	0.75	0.75	1.25	1.25	2.75	3.00	0.25	0.75	-0.186523	0.058594	0.958496	-0.840000	5.320000	-0.910000	600.00	-0.11	-0.13	3.00	2.75	4.25	6.00	5.75	6.50	0.50	2.25	0.00	0.50	1.00	0.75	1.00	1.75	0.25	1.00	-0.144043	0.039062	0.982910	-3.150000	-4.480000	1.540000	400.00	-0.14	-0.11
0.33	2.50	3.75	6.00	6.25	8.25	10.75	0.75	6.00	0.75	0.75	1.25	1.25	3.00	2.75	0.50	0.75	-0.188965	0.053223	0.955078	-1.050000	5.600000	-0.910000	609.00	-0.10	-0.14	3.00	2.50	4.00	6.00	5.75	6.50	0.50	2.25	0.00	0.50	0.75	0.75	1.25	1.75	0.25	0.75	-0.152832	0.040527	0.982910	-3.150000	-4.340000	1.610000	394.00	-0.14	-0.11
0.34	2.50	3.75	5.50	5.75	8.00	11.25	0.75	6.00	1.00	0.75	1.25	1.50	3.00	3.00	0.50	0.75	-0.192871	0.052246	0.955078	-0.910000	5.460000	-0.840000	608.00	-0.10	-0.14	3.00	2.25	4.00	5.75	5.75	6.75	0.50	2.50	0.00	0.25	0.75	1.00	1.25	1.75	0.25	1.00	-0.149414	0.037598	0.989258	-3.010000	-4.270000	1.750000	396.00	-0.14	-0.12
0.35	2.50	3.75	5.75	6.00	8.00	11.25	0.75	6.25	1.00	0.75	1.50	1.25	3.00	2.75	0.50	0.75	-0.187012	0.055664	0.957031	-0.770000	5.390000	-0.840000	616.00	-0.10	-0.14	2.75	2.50	4.00	6.00	5.75	6.75	0.50	2.25	0.00	1.00	0.75	1.00	1.25	1.50	0.25	1.00	-0.149902	0.037598	0.981934	-2.870000	-4.130000	1.820000	401.00	-0.14	-0.12
0.36	2.50	3.50	5.50	6.00	7.75	11.25	0.75	6.25	0.75	0.75	1.25	1.50	3.00	2.50	0.25	0.75	-0.189941	0.049805	0.950195	-0.840000	5.810000	-0.980000	600.00	-0.10	-0.15	2.75	2.75	4.00	6.00	5.75	7.00	0.50	2.50	0.00	0.50	1.00	1.00	1.25	1.75	0.50	1.00	-0.149902	0.037109	0.985352	-2.730000	-3.990000	1.820000	412.00	-0.13	-0.12
0.37	2.25	3.50	5.50	5.75	7.75	11.50	0.75	6.50	1.00	0.50	1.50	1.50	3.25	2.50	0.50	0.75	-0.188477	0.053711	0.958008	-0.770000	5.810000	-0.980000	609.00	-0.10	-0.15	2.50	2.50	4.00	6.00	5.75	7.00	0.50	2.50	0.00	0.25	0.75	1.00	1.25	1.75	0.25	1.00	-0.149414	0.040527	0.981934	-2.590000	-3.920000	1.890000	399.00	-0.14	-0.13
0.38	2.25	3.50	5.25	5.75	7.75	11.50	0.75	6.25	1.00	0.75	1.50	1.25	3.25	2.50	0.25	0.75	-0.184570	0.051758	0.955078	-0.770000	5.880000	-0.980000	600.00	-0.10	-0.15	2.50	2.50	3.75	6.00	5.75	7.25	0.50	2.50	0.25	0.50	0.75	1.25	1.25	1.75	0.25	1.00	-0.148438	0.038574	0.981934	-2.590000	-3.990000	1.890000	408.00	-0.13	-0.12
0.39	2.25	3.50	5.25	5.75	7.75	12.00	0.75	6.50	1.00	0.75	1.25	1.50	3.50	2.50	0.25	1.00	-0.189453	0.052246	0.957520	-0.840000	5.600000	-0.980000	613.00	-0.10	-0.15	2.50	2.25	3.75	6.00	5.75	7.25	0.50	2.50	0.00	0.50	1.00	1.25	1.25	1.75	0.25	1.00	-0.148438	0.040527	0.983398	-2.450000	-3.920000	1.890000	405.00	-0.13	-0.13
0.40	2.25	3.25	5.25	6.00	7.50	11.75	0.75	6.50	1.00	0.75	1.50	1.50	3.25	2.50	0.25	0.75	-0.188965	0.055176	0.959473	-0.980000	6.160000	-1.120000	607.00	-0.10	-0.15	2.25	2.25	3.75	5.75	5.50	7.50	0.50	2.75	0.00	0.50	1.00	1.00	1.25	1.75	0.25	1.00	-0.151855	0.038574	0.987793	-2.310000	-3.710000	1.960000	400.00	-0.13	-0.13
0.41	2.50	3.50	5.25	6.00	7.50	12.00	0.75	6.75	1.00	0.75	1.50	1.50	3.50	2.50	0.50	0.75	-0.189453	0.049316	0.952148	-1.050000	6.160000	-1.120000	623.00	-0.10	-0.15	2.50	2.50	4.00	6.00	5.50	7.50	0.50	2.75	0.00	0.25	0.75	1.00	1.50	1.75	0.25	1.00	-0.147461	0.041992	0.982422	-2.100000	-3.710000	2.170000	408.00	-0.13	-0.13
0.42	2.25	3.50	5.25	5.75	7.50	11.75	0.75	6.75	0.75	0.75	1.50	1.50	3.50	2.50	0.25	0.75	-0.194824	0.050781	0.958984	-0.980000	5.880000	-0.980000	609.00	-0.10	-0.15	2.50	2.50	3.75	5.75	5.50	7.50	0.50	2.50	0.00	0.50	1.00	1.25	1.25	1.75	0.25	1.00	-0.148926	0.038574	0.981445	-1.960000	-3.640000	2.170000	404.00	-0.13	-0.13
0.43	2.25	3.50	5.00	6.00	7.50	12.00	0.75	6.75	1.25	0.75	1.50	1.25	3.50	2.50	0.50	0.75	-0.188965	0.055664	0.953125	-1.050000	5.670000	-0.910000	618.00	-0.09	-0.15	2.50	2.25	3.75	6.00	5.50	7.50	0.50	2.75	0.00	0.50	0.75	1.25	1.50	1.75	0.25	1.00	-0.147461	0.041992	0.985840	-1.960000	-3.500000	2.170000	408.00	-0.13	-0.13
0.44	2.25	3.50	5.00	5.75	7.25	12.00	0.50	6.75	0.50	0.75	1.50	1.50	3.50	2.50	0.25	0.75	-0.186035	0.053223	0.958008	-0.910000	5.810000	-0.910000	599.00	-0.10	-0.16	2.50	2.25	3.75	6.00	5.50	7.50	0.50	2.75	0.25	0.25	1.25	1.00	1.50	1.75	0.25	1.25	-0.150391	0.036621	0.984863	-2.030000	-3.430000	2.240000	413.00	-0.12	-0.13
0.45	2.00	3.50	5.00	5.75	7.50	12.50	0.75	6.75	1.00	0.75	1.50	1.50	3.50	2.75	0.25	0.75	-0.190430	0.057129	0.957031	-1.050000	5.810000	-0.910000	617.00	-0.09	-0.15	2.25	2.25	3.50	5.50	5.50	7.75	0.50	2.75	0.00	0.50	0.75	1.00	1.50	1.50	0.25	1.00	-0.152344	0.039551	0.978516	-1.960000	-3.360000	2.170000	395.00	-0.13	-0.14
0.46	2.00	3.50	5.00	5.75	7.25	12.25	0.75	7.00	0.50	0.75	1.25	1.50	3.50	2.25	0.50	0.75	-0.185547	0.060059	0.956543	-1.120000	5.950000	-0.980000	605.00	-0.10	-0.16	2.25	2.50	3.75	5.50	5.25	7.75	0.50	3.00	0.00	0.75	1.00	1.00	1.75	1.50	0.25	1.00	-0.149414	0.040039	0.987793	-1.890000	-3.220000	2.170000	409.00	-0.12	-0.14
0.47	2.00	3.25	5.00	5.75	7.25	12.50	0.75	7.00	0.75	0.75	1.50	1.50	3.75	2.50	0.50	0.75	-0.186523	0.058594	0.957031	-1.120000	5.880000	-0.910000	615.00	-0.09	-0.16	2.25	2.25	3.50	5.50	5.50	8.00	0.50	3.00	0.00	0.25	0.75	1.00	1.25	1.25	0.00	0.75	-0.149902	0.040527	0.983887	-1.960000	-3.360000	2.240000	391.00	-0.14	-0.14
0.48	2.00	3.75	4.75	5.75	7.25	12.75	0.50	7.25	1.00	0.75	1.50	1.75	3.75	2.50	0.25	0.75	-0.189453	0.058105	0.958008	-1.190000	5.810000	-0.980000	623.00	-0.09	-0.17	2.25	2.25	3.50	5.50	5.50	8.00	0.50	3.00	0.00	0.50	1.00	1.00	1.50	1.50	0.00	0.75	-0.146973	0.042480	0.982910	-2.030000	-3.360000	2.170000	400.00	-0.13	-0.14
0.49	2.00	3.00	4.50	5.50	7.25	12.50	0.75	7.25	1.00	1.00	1.50	1.50	3.75	2.50	0.25	0.75	-0.187012	0.050781	0.958008	-1.260000	5.810000	-1.050000	612.00	-0.09	-0.16	2.00	2.50	3.75	5.75	5.25	8.00	0.50	3.25	0.00	0.50	1.00	1.25	1.50	1.25	0.25	0.75	-0.147949	0.046387	0.988770	-2.030000	-3.360000	2.310000	410.00	-0.13	-0.15
0.50	2.00	3.25	4.75	5.75	7.25	13.00	0.75	7.25	1.00	0.75	1.50	1.50	3.75	2.25	0.50	0.75	-0.184570	0.053223	0.955078	-1.330000	6.020000	-1.120000	623.00	-0.09	-0.16	2.25	2.25	3.50	5.75	5.25	8.00	0.50	3.25	0.00	0.50	1.00	1.25	1.75	1.25	0.25	1.00	-0.147949	0.040527	0.985352	-2.100000	-3.430000	2.310000	411.00	-0.12	-0.15
0.51	2.00	3.25	4.75	5.50	7.25	13.00	0.75	7.25	0.50	0.75	1.50	1.50	3.75	2.50	0.50	0.75	-0.188965	0.056641	0.955078	-1.400000	6.020000	-1.120000	616.00	-0.09	-0.17	2.25	2.50	3.50	5.75	5.25	8.25	0.50	3.00	0.00	0.50	1.00	1.25	1.75	1.25	0.25	1.00	-0.147461	0.040039	0.988281	-2.100000	-3.290000	2.170000	412.00	-0.13	-0.15
0.52	2.00	3.00	4.25	5.75	7.00	13.00	0.75	7.25	1.00	0.75	1.50	1.75	3.75	2.25	0.50	0.75	-0.190918	0.053711	0.956543	-1.470000	5.880000	-1.050000	615.00	-0.09	-0.17	2.00	2.00	3.25	5.50	5.25	8.25	0.50	3.25	0.00	0.50	1.00	1.25	1.50	1.25	0.25	0.75	-0.152344	0.038086	0.986816	-2.170000	-3.290000	2.170000	399.00	-0.12	-0.15
0.53	2.00	3.25	4.50	5.50	7.00	12.75	0.50	7.25	0.50	0.75	1.50	1.25	3.75	2.25	0.50	0.75	-0.188477	0.055176	0.956543	-1.470000	6.020000	-0.980000	599.00	-0.09	-0.17	2.25	2.25	3.25	5.50	5.00	8.25	0.50	3.25	0.00	0.50	1.00	1.25	1.50	1.25	0.25	1.00	-0.145020	0.045898	0.979492	-2.170000	-3.150000	2.310000	403.00	-0.12	-0.15
0.54	2.00	3.25	4.50	5.50	7.00	12.75	0.75	7.00	0.50	0.75	1.50	1.75	4.00	2.25	0.50	0.75	-0.192871	0.058105	0.953613	-1.470000	5.880000	-0.910000	606.00	-0.09	-0.17	2.00	2.25	3.25	5.50	5.25	8.25	0.50	3.25	0.00	0.75	1.00	1.25	1.50	1.25	0.00	1.00	-0.152344	0.040039	0.986328	-2.100000	-3.080000	2.170000	403.00	-0.12	-0.15
0.55	2.00	3.50	4.50	5.50	7.00	13.00	0.75	7.25	0.50	0.50	1.50	1.50	3.75	2.00	0.25	1.00	-0.190918	0.056641	0.957031	-1.610000	5.810000	-0.910000	604.00	-0.10	-0.17	2.00	2.50	3.25	5.50	5.25	8.25	0.50	3.25	0.00	0.50	1.00	1.00	1.75	1.25	0.25	0.75	-0.150391	0.041992	0.980957	-2.170000	-3.150000	2.240000	403.00	-0.13	-0.15
0.56	2.00	3.00	4.25	5.25	7.00	12.75	0.50	7.25	1.00	0.75	1.50	1.50	3.75	2.50	0.50	0.75	-0.192871	0.053711	0.955078	-1.610000	5.810000	-0.980000	602.00	-0.08	-0.17	2.25	2.50	3.25	5.50	5.25	8.25	0.50	3.25	0.00	0.25	1.00	1.25	1.50	1.25	0.00	0.75	-0.151855	0.048340	0.984375	-2.170000	-3.220000	2.380000	401.00	-0.13	-0.15
0.57	2.00	3.50	4.25	5.50	7.00	13.25	0.75	7.25	0.50	1.00	1.50	1.75	3.75	2.25	0.50	0.75	-0.188477	0.055176	0.956543	-1.540000	5.950000	-0.980000	615.00	-0.09	-0.17	2.00	2.50	3.25	5.50	5.25	8.50	0.50	3.25	0.00	0.50	1.00	1.00	1.25	1.50	0.00	1.00	-0.148926	0.039551	0.984375	-2.240000	-3.220000	2.240000	403.00	-0.13	-0.15
0.58	2.25	3.25	4.25	5.50	7.00	13.00	0.50	7.25	1.00	0.75	1.50	1.50	4.00	2.25	0.25	0.75	-0.187012	0.056641	0.957520	-1.540000	6.090000	-0.980000	610.00	-0.09	-0.17	2.25	2.00	3.50	5.50	5.00	8.25	0.50	3.25	0.00	0.50	1.00	1.25	1.50	1.50	0.25	0.75	-0.153320	0.041992	0.979004	-2.380000	-3.150000	2.240000	404.00	-0.12	-0.15
0.59	2.00	3.25	4.25	5.50	7.25	13.00	0.75	7.25	0.75	0.75	1.50	1.50	4.00	2.25	0.50	0.75	-0.188965	0.052734	0.955566	-1.470000	6.090000	-1.050000	613.00	-0.09	-0.17	2.25	2.25	3.25	5.50	5.00	8.50	0.50	3.25	0.00	0.50	1.00	1.25	1.50	1.25	0.00	0.75	-0.146973	0.039062	0.982422	-2.380000	-3.150000	2.170000	402.00	-0.13	-0.15
0.60	2.00	3.25	4.25	5.50	7.00	13.25	0.75	7.25	0.75	0.75	1.50	1.50	4.00	2.25	0.25	0.75	-0.188477	0.057129	0.960449	-1.330000	5.880000	-0.910000	611.00	-0.09	-0.17	2.25	2.50	3.25	5.75	5.00	8.50	0.50	3.25	0.00	0.50	1.00	1.00	1.50	1.00	0.00	1.00	-0.148926	0.040527	0.975098	-2.450000	-3.010000	2.240000	403.00	-0.13	-0.15
0.61	2.00	3.00	4.50	5.75	7.25	13.50	0.75	7.25	0.75	1.00	1.50	1.50	4.00	2.25	0.25	0.75	-0.187012	0.055664	0.952637	-1.470000	6.230000	-1.050000	622.00	-0.09	-0.17	2.25	2.25	3.50	5.75	5.00	8.50	0.50	3.25	0.00	0.50	0.75	1.25	1.50	1.25	0.00	0.75	-0.147461	0.040527	0.984375	-2.310000	-3.010000	2.310000	405.00	-0.13	-0.15
0.62	2.25	3.25	4.25	5.50	7.00	13.50	0.75	7.25	0.75	0.75	1.50	1.50	4.00	2.00	0.25	0.75	-0.190918	0.059082	0.962891	-1.330000	6.160000	-0.910000	614.00	-0.09	-0.17	2.25	2.25	3.50	5.75	5.25	8.50	0.50	3.25	0.00	0.25	1.00	1.00	1.75	1.25	0.25	1.00	-0.150391	0.039062	0.985840	-2.240000	-3.010000	2.450000	411.00	-0.13	-0.15
0.63	2.00	3.25	4.25	5.50	7.00	13.75	0.75	7.50	0.75	0.75	1.50	1.50	3.75	2.25	0.50	0.75	-0.189453	0.056152	0.958496	-1.190000	6.230000	-0.910000	620.00	-0.09	-0.17	2.25	2.25	3.25	5.75	5.25	8.50	0.50	3.25	0.00	0.50	0.75	1.00	1.50	1.00	0.00	0.75	-0.148438	0.039062	0.980469	-2.310000	-3.010000	2.380000	400.00	-0.14	-0.15
0.64	2.00	3.25	4.50	5.50	7.00	13.50	0.75	7.50	1.00	0.75	1.50	1.50	4.00	2.00	0.25	0.75	-0.190918	0.059082	0.956055	-1.120000	6.300000	-0.770000	621.00	-0.09	-0.17	2.25	2.50	3.50	5.75	5.25	8.50	0.50	3.25	0.00	0.50	1.00	1.00	1.50	1.25	0.00	0.75	-0.151855	0.042969	0.979980	-2.170000	-3.010000	2.380000	410.00	-0.13	-0.15
0.65	2.00	3.25	4.25	5.75	7.00	13.50	0.75	7.25	0.50	1.00	1.50	1.50	4.00	2.00	0.25	0.75	-0.190918	0.051270	0.961914	-1.050000	6.370000	-0.770000	613.00	-0.09	-0.17	2.25	2.75	3.25	5.75	5.25	8.25	0.50	3.25	0.00	0.50	1.00	1.25	1.00	1.25	0.00	1.00	-0.156738	0.039062	0.981445	-2.030000	-2.800000	2.520000	406.00	-0.13	-0.15
0.66	2.00	3.50	4.25	5.50	7.00	13.75	0.50	7.50	0.75	0.75	1.50	1.50	4.00	1.75	0.25	0.75	-0.188477	0.057617	0.954102	-0.910000	6.370000	-0.700000	614.00	-0.10	-0.18	2.25	2.50	3.50	5.75	5.25	8.25	0.50	3.50	0.00	0.50	1.00	1.00	1.75	1.00	0.25	0.75	-0.150879	0.042480	0.981445	-2.030000	-2.940000	2.660000	413.00	-0.13	-0.15
0.67	2.00	3.25	4.00	5.50	6.75	14.00	0.75	7.50	0.75	0.75	1.75	1.75	4.00	2.25	0.25	0.75	-0.189453	0.053223	0.954102	-0.910000	6.370000	-0.630000	622.00	-0.09	-0.18	2.50	2.50	3.50	5.75	5.25	8.50	0.50	3.25	0.00	0.25	1.00	1.00	1.50	1.25	0.00	0.75	-0.148926	0.042480	0.980469	-1.960000	-2.940000	2.520000	410.00	-0.14	-0.15
0.68	1.75	3.25	4.25	5.75	6.75	14.25	0.75	7.50	0.75	0.50	1.50	1.75	4.25	2.00	0.25	0.75	-0.189453	0.056641	0.955078	-0.770000	6.370000	-0.700000	623.00	-0.09	-0.18	2.50	2.50	3.50	6.00	5.00	8.50	0.50	3.25	0.00	0.25	0.75	1.00	1.50	1.25	0.25	1.00	-0.155273	0.045410	0.985352	-1.960000	-2.800000	2.590000	411.00	-0.14	-0.15
0.69	2.00	3.50	4.25	5.50	6.75	14.00	0.75	7.50	1.00	0.75	1.50	1.75	4.00	2.00	0.50	0.75	-0.189941	0.059082	0.956055	-0.700000	6.370000	-0.630000	629.00	-0.09	-0.17	2.25	2.75	3.25	6.00	5.00	8.50	0.25	3.25	0.00	0.50	0.75	1.25	1.25	1.00	0.00	0.75	-0.148438	0.041992	0.981934	-1.680000	-2.660000	2.450000	401.00	-0.14	-0.16
0.70	2.00	3.50	4.25	5.75	6.75	14.25	0.75	7.75	0.75	0.50	1.50	1.50	4.25	2.00	0.25	0.75	-0.189941	0.058105	0.954590	-0.560000	6.230000	-0.630000	629.00	-0.09	-0.18	2.50	2.50	3.50	5.75	5.25	8.75	0.25	3.25	0.00	0.50	0.75	1.25	1.50	1.00	0.25	0.75	-0.153320	0.043457	0.985352	-1.680000	-2.800000	2.380000	412.00	-0.14	-0.15
0.71	2.00	3.25	4.25	5.75	6.75	14.25	0.75	7.75	0.75	0.50	1.50	1.50	4.25	1.75	0.25	0.75	-0.190918	0.058105	0.950684	-0.630000	6.440000	-0.560000	625.00	-0.10	-0.18	2.50	2.75	3.50	5.75	5.00	8.75	0.50	3.25	0.00	0.25	0.75	1.00	1.50	1.00	0.00	0.75	-0.149414	0.043945	0.982422	-1.680000	-2.800000	2.520000	407.00	-0.15	-0.15
0.72	2.00	3.25	4.25	5.50	6.50	14.25	0.50	7.75	0.75	0.50	1.50	1.75	4.50	1.75	0.25	0.75	-0.185059	0.057617	0.953125	-0.630000	6.650000	-0.700000	620.00	-0.09	-0.19	2.50	2.50	3.50	5.75	5.00	8.75	0.25	3.50	0.00	0.25	1.00	1.25	1.50	1.00	0.00	0.75	-0.151367	0.046387	0.982910	-1.750000	-2.940000	2.520000	410.00	-0.14	-0.16
0.73	1.75	3.00	4.00	5.50	6.50	14.50	0.50	8.00	0.50	0.75	1.50	1.75	4.25	1.50	0.50	0.75	-0.192383	0.058105	0.958008	-0.560000	6.440000	-0.700000	617.00	-0.09	-0.19	2.25	2.75	3.25	5.75	5.00	8.75	0.25	3.50	0.00	0.25	0.75	1.25	1.25	1.00	0.00	0.75	-0.146973	0.044434	0.985352	-1.820000	-2.940000	2.380000	402.00	-0.14	-0.16
0.74	1.75	3.25	4.00	5.75	6.50	14.25	0.75	8.00	0.75	0.75	1.50	1.50	4.50	1.50	0.25	0.75	-0.190918	0.059082	0.953125	-0.560000	6.370000	-0.560000	623.00	-0.09	-0.19	2.25	2.50	3.50	6.00	5.00	8.75	0.50	3.25	0.00	0.50	0.75	1.25	1.25	1.00	0.25	0.75	-0.153320	0.041504	0.977051	-1.820000	-2.870000	2.450000	411.00	-0.14	-0.15
0.75	2.00	3.50	4.00	5.75	6.50	15.25	0.75	8.00	1.00	0.50	1.50	1.75	4.75	1.75	0.25	0.75	-0.187500	0.059082	0.958496	-0.560000	6.510000	-0.630000	646.00	-0.09	-0.19	2.25	2.50	3.25	5.75	5.00	8.75	0.25	3.50	0.00	0.25	0.75	1.25	1.25	1.00	0.00	0.75	-0.150879	0.041016	0.978027	-1.820000	-2.940000	2.380000	400.00	-0.14	-0.16
0.76	2.00	3.25	4.25	5.75	6.25	15.00	0.75	8.00	1.00	0.75	1.50	1.75	4.50	1.50	0.25	0.75	-0.191406	0.058105	0.957031	-0.560000	6.650000	-0.630000	640.00	-0.09	-0.19	2.75	2.75	3.25	5.75	5.00	9.00	0.50	3.50	0.00	0.25	0.50	1.25	1.50	1.00	0.00	0.75	-0.148438	0.044434	0.982422	-1.890000	-2.870000	2.240000	413.00	-0.14	-0.16
0.77	2.00	3.75	4.00	5.75	6.50	15.00	0.75	8.00	0.50	0.50	1.50	1.75	4.50	1.50	0.25	0.75	-0.191895	0.057129	0.953613	-0.560000	6.720000	-0.700000	635.00	-0.10	-0.19	2.25	2.75	3.25	6.00	5.00	8.75	0.25	3.50	0.00	0.00	0.75	1.00	1.50	1.00	0.00	0.75	-0.146973	0.042480	0.981445	-2.100000	-3.010000	2.310000	402.00	-0.15	-0.16
0.78	1.75	3.25	4.00	5.75	6.25	15.50	0.50	8.00	0.75	0.50	1.50	1.50	5.00	1.25	0.25	0.75	-0.192871	0.054199	0.957520	-0.700000	6.790000	-0.700000	630.00	-0.10	-0.20	2.25	2.75	3.50	5.75	4.75	8.75	0.50	3.25	0.00	0.25	0.50	1.25	1.50	1.00	0.00	0.75	-0.148926	0.040039	0.983887	-2.240000	-3.080000	2.310000	402.00	-0.14	-0.16
0.79	2.00	3.25	4.00	5.75	6.50	15.75	0.75	8.25	0.75	0.50	1.25	1.50	4.75	1.75	0.00	0.75	-0.192871	0.057617	0.957031	-0.630000	6.580000	-0.700000	642.00	-0.10	-0.19	2.50	2.75	3.25	6.00	5.00	8.75	0.25	3.50	0.00	0.25	1.00	1.00	1.50	1.00	0.00	0.75	-0.151367	0.042480	0.980469	-2.310000	-3.150000	2.310000	410.00	-0.14	-0.16
0.80	2.25	3.25	4.00	5.75	6.25	15.50	0.50	8.25	0.25	0.75	1.50	1.75	5.00	1.75	0.25	0.75	-0.187988	0.054199	0.957031	-0.560000	6.580000	-0.630000	641.00	-0.09	-0.20	2.50	2.25	3.25	5.75	5.00	9.00	0.25	3.50	0.00	0.50	0.50	1.00	1.75	1.00	0.00	0.75	-0.152344	0.047363	0.982910	-2.170000	-2.940000	2.240000	405.00	-0.14	-0.16
0.81	2.00	3.00	4.00	6.00	6.25	15.50	0.75	8.25	0.50	0.50	1.50	1.75	5.00	1.50	0.25	0.75	-0.188965	0.059082	0.961914	-0.770000	6.650000	-0.770000	642.00	-0.09	-0.20	2.25	2.75	3.25	6.00	5.00	8.75	0.25	3.50	0.00	0.25	0.75	1.00	1.25	1.00	0.00	0.75	-0.146484	0.041992	0.983887	-2.240000	-3.080000	2.240000	402.00	-0.15	-0.16
0.82	2.00	3.25	4.00	5.75	6.25	15.75	0.50	8.25	0.75	0.75	1.25	1.50	5.00	1.25	0.25	0.75	-0.189453	0.059082	0.959473	-0.840000	6.720000	-0.910000	639.00	-0.10	-0.20	2.50	2.75	3.50	6.00	4.75	8.75	0.25	3.50	0.00	0.25	0.75	1.25	1.50	1.00	0.00	0.75	-0.149414	0.047363	0.977539	-2.240000	-2.940000	2.240000	410.00	-0.14	-0.16
0.83	1.75	3.25	4.00	5.75	6.25	16.00	0.50	8.25	0.25	0.50	1.50	1.75	5.00	1.25	0.25	0.75	-0.194824	0.061035	0.959473	-0.700000	6.440000	-0.770000	635.00	-0.10	-0.20	2.25	2.75	3.50	5.75	4.75	8.75	0.25	3.50	0.00	0.25	0.75	1.00	1.50	0.75	0.00	0.50	-0.148926	0.039062	0.979492	-2.240000	-3.080000	2.240000	398.00	-0.15	-0.16
0.84	2.00	3.50	4.00	6.00	6.25	15.75	0.50	8.25	0.50	0.50	1.50	1.50	5.25	1.00	0.25	0.75	-0.189453	0.065918	0.960938	-0.700000	6.440000	-0.770000	640.00	-0.10	-0.20	2.50	2.75	3.25	6.00	4.75	9.00	0.25	3.50	0.00	0.25	0.50	1.00	1.50	1.00	0.00	0.75	-0.146973	0.040527	0.978027	-2.240000	-3.010000	2.240000	404.00	-0.15	-0.16
0.85	2.00	2.75	4.00	5.75	6.25	16.00	0.50	8.50	0.75	0.50	1.50	1.50	5.25	1.25	0.00	0.75	-0.197266	0.059570	0.959473	-0.630000	6.440000	-0.770000	640.00	-0.09	-0.20	2.25	2.75	3.25	6.00	4.75	9.00	0.25	3.50	0.00	0.25	0.75	1.00	1.25	0.75	0.00	0.75	-0.152344	0.041992	0.989746	-2.240000	-3.080000	2.380000	400.00	-0.15	-0.16
0.86	2.00	3.25	4.00	5.75	6.25	15.75	0.50	8.50	0.75	0.50	1.50	1.75	5.00	1.50	0.25	0.75	-0.193848	0.060547	0.958496	-0.560000	6.720000	-0.840000	647.00	-0.09	-0.20	2.25	2.75	3.25	6.00	4.75	8.75	0.25	3.50	0.00	0.25	0.75	1.00	1.25	1.00	0.00	0.75	-0.153320	0.041504	0.977539	-2.170000	-3.010000	2.310000	400.00	-0.15	-0.16
0.87	1.75	3.00	4.00	6.00	6.00	15.75	0.50	8.50	0.50	0.50	1.25	1.75	5.00	1.25	0.00	0.75	-0.193359	0.062500	0.954590	-0.630000	6.720000	-0.840000	632.00	-0.10	-0.20	2.25	2.25	3.25	6.00	4.75	9.00	0.25	3.50	0.00	0.00	0.75	1.25	1.25	1.00	0.00	0.75	-0.156250	0.042480	0.981934	-2.170000	-2.940000	2.310000	398.00	-0.14	-0.16
0.88	2.00	3.25	4.00	6.00	6.25	16.00	0.50	8.25	0.75	0.50	1.25	1.75	5.25	1.00	0.00	0.50	-0.190430	0.058105	0.951660	-0.700000	6.790000	-0.840000	640.00	-0.10	-0.20	2.25	2.50	3.25	6.00	4.75	8.75	0.25	3.50	0.00	0.25	0.75	1.00	1.25	1.00	0.00	0.75	-0.151367	0.041016	0.983398	-2.100000	-3.010000	2.240000	397.00	-0.14	-0.16
0.89	2.00	3.25	4.00	5.75	6.00	16.00	0.50	8.25	0.50	0.50	1.25	1.50	5.00	1.50	0.25	0.75	-0.190918	0.062500	0.955078	-0.770000	6.860000	-0.910000	635.00	-0.10	-0.20	2.25	2.50	3.50	5.75	4.75	8.75	0.25	3.50	0.00	0.00	0.75	1.25	1.25	1.00	0.00	0.75	-0.148926	0.042969	0.980469	-2.170000	-3.080000	2.380000	397.00	-0.14	-0.16
0.90	2.00	3.25	4.00	5.75	6.00	16.00	0.50	8.50	0.50	0.50	1.50	1.75	5.00	1.25	0.25	0.75	-0.194336	0.063477	0.956055	-0.980000	6.860000	-0.910000	642.00	-0.10	-0.20	2.50	2.75	3.25	6.00	4.75	9.00	0.25	3.25	0.00	0.50	0.50	1.00	1.25	0.75	0.00	0.75	-0.147461	0.042969	0.987305	-2.170000	-3.080000	2.380000	399.00	-0.15	-0.16
0.91	2.00	3.50	4.00	6.00	6.00	15.75	0.50	8.25	0.50	0.50	1.25	1.50	5.00	1.25	0.25	0.75	-0.189941	0.064453	0.958984	-1.050000	6.930000	-0.840000	635.00	-0.10	-0.20	2.50	2.75	3.50	6.00	4.75	9.00	0.25	3.25	0.00	0.25	0.75	1.00	1.25	1.00	0.00	0.75	-0.151855	0.042480	0.985352	-2.170000	-3.010000	2.520000	404.00	-0.15	-0.16
0.92	2.25	3.25	4.00	6.00	6.00	16.00	0.50	8.25	0.50	0.50	1.25	1.50	5.00	1.25	0.00	0.75	-0.196289	0.068359	0.960449	-0.560000	7.490000	-0.840000	635.00	-0.10	-0.20	2.50	2.50	3.50	6.00	4.50	9.00	0.25	3.50	0.00	0.00	0.50	0.75	1.25	0.75	0.00	0.50	-0.158691	0.044434	0.978027	-1.820000	-2.940000	2.730000	391.00	-0.16	-0.16
0.93	2.00	3.25	4.00	5.75	6.25	15.50	0.75	8.25	0.25	0.50	1.25	1.50	5.00	1.00	0.00	0.50	-0.193359	0.062500	0.952637	0.350000	8.470000	-0.560000	624.00	-0.10	-0.20	2.50	2.75	3.50	6.00	5.00	9.00	0.25	3.50	0.00	0.25	0.75	1.00	1.25	0.75	0.00	0.50	-0.155273	0.043457	0.983398	-1.050000	-2.800000	2.940000	407.00	-0.15	-0.16
0.94	2.25	3.25	4.00	6.00	6.00	15.50	0.50	8.00	0.50	0.25	1.25	1.50	5.00	1.25	0.00	0.50	-0.197266	0.060059	0.952637	1.190000	9.520000	-0.490000	622.00	-0.11	-0.20	2.75	3.00	3.50	6.25	5.00	9.25	0.25	3.50	0.00	0.25	0.50	1.00	1.25	0.75	0.00	0.50	-0.151367	0.044434	0.980957	-0.350000	-2.310000	3.220000	415.00	-0.16	-0.16
0.95	2.00	3.25	4.00	6.00	6.00	15.25	0.50	8.00	0.50	0.25	1.00	1.50	4.75	1.00	0.25	0.75	-0.197266	0.060059	0.962402	2.730000	10.920000	-0.350000	614.00	-0.11	-0.20	2.75	3.00	3.25	6.50	4.75	9.25	0.25	3.50	0.00	0.00	0.75	0.75	1.25	0.50	0.00	0.50	-0.156738	0.037598	0.977539	0.700000	-1.890000	3.570000	407.00	-0.17	-0.16
0.96	2.00	3.50	4.00	6.00	5.75	15.00	0.50	7.75	0.25	0.25	1.00	1.25	4.25	1.00	0.00	0.50	-0.199707	0.062500	0.959473	6.510000	13.300000	0.210000	593.00	-0.12	-0.20	3.00	3.00	4.00	6.50	5.00	9.25	0.25	3.25	0.00	0.50	0.75	0.75	1.00	0.50	0.00	0.25	-0.157715	0.043945	0.979980	1.960000	-1.820000	3.710000	419.00	-0.17	-0.15
0.97	2.00	3.25	4.25	6.00	6.00	14.50	0.50	7.50	0.25	0.00	1.00	1.00	4.50	1.25	0.00	0.50	-0.203125	0.066406	0.959473	10.010000	15.050000	0.560000	586.00	-0.12	-0.20	3.00	3.25	4.00	6.75	5.00	9.50	0.25	3.25	0.00	0.00	0.50	0.50	1.00	0.50	0.00	0.25	-0.155273	0.046875	0.987793	4.970000	-1.680000	3.990000	416.00	-0.18	-0.15
0.98	2.00	3.50	4.25	6.00	5.75	14.25	0.50	7.50	0.50	0.25	0.75	1.00	3.75	1.00	0.00	0.25	-0.206055	0.071777	0.956055	11.690000	15.610000	0.700000	576.00	-0.12	-0.19	3.50	3.75	4.00	7.50	5.00	9.75	0.25	3.25	0.00	0.00	0.50	1.00	0.75	0.75	0.00	0.25	-0.156250	0.045898	0.998535	11.410000	-0.630000	4.550000	442.00	-0.18	-0.15
0.99	2.25	3.50	4.00	6.00	5.75	14.00	0.50	7.00	0.50	0.00	1.00	1.00	3.50	1.00	0.00	0.25	-0.198242	0.066406	0.960449	12.530000	15.050000	0.770000	563.00	-0.12	-0.19	4.00	4.25	4.50	8.00	5.25	10.00	0.25	3.25	0.00	0.00	0.25	0.75	0.75	0.50	0.00	0.00	-0.165527	0.071289	0.989258	19.110001	-1.120000	4.830000	459.00	-0.20	-0.15
1.00	2.50	3.75	4.50	6.75	5.75	13.75	0.50	6.75	0.25	0.00	0.75	1.00	3.00	0.75	0.00	0.00	-0.208984	0.068359	0.959473	13.720000	13.300000	0.420000	562.00	-0.14	-0.19	4.25	4.75	5.00	8.25	5.00	10.00	0.25	3.00	0.00	0.00	0.25	0.75	0.75	0.25	0.00	0.00	-0.158203	0.058594	0.989746	25.129999	-1.890000	5.110000	466.00	-0.21	-0.14
1.01	2.75	4.00	4.50	6.75	5.75	13.50	0.50	6.50	0.50	0.00	0.75	1.00	2.75	0.75	0.00	0.00	-0.200684	0.065918	0.955078	15.050000	13.020000	0.280000	561.00	-0.14	-0.18	4.50	5.00	5.00	8.50	5.00	10.25	0.25	3.00	0.00	0.00	0.50	0.50	0.75	0.50	0.00	0.00	-0.150391	0.058105	0.987793	26.950001	-3.150000	5.110000	479.00	-0.21	-0.14
1.02	3.00	4.00	4.50	6.75	6.00	13.00	0.25	6.25	0.50	0.00	0.50	0.50	2.75	0.75	0.00	0.00	-0.202637	0.078613	0.945801	14.140000	12.250000	0.070000	546.00	-0.15	-0.18	5.50	5.25	5.50	9.00	5.00	10.50	0.00	2.75	0.00	0.00	0.00	0.75	0.25	0.25	0.00	0.00	-0.144043	0.050293	0.985352	30.520000	-2.170000	4.270000	489.00	-0.22	-0.13
1.03	3.00	4.25	4.75	7.25	5.75	12.75	0.50	6.25	0.00	0.00	0.50	0.75	2.50	0.75	0.00	0.00	-0.197754	0.082031	0.956543	12.110000	11.690000	-0.280000	548.00	-0.16	-0.18	5.75	5.50	5.75	9.25	5.00	10.50	0.25	2.75	0.00	0.00	0.25	0.50	0.25	0.25	0.00	0.00	-0.145996	0.068359	0.980957	28.070000	-6.160000	4.340000	503.00	-0.22	-0.13
1.04	3.00	4.25	5.00	7.00	5.75	12.50	0.50	5.75	0.25	0.00	0.50	0.75	2.25	0.75	0.00	0.00	-0.198242	0.086426	0.948730	8.470000	10.850000	-0.560000	539.00	-0.16	-0.17	6.75	6.25	6.00	9.50	5.00	10.75	0.00	2.75	0.00	0.00	0.25	0.75	0.50	0.25	0.00	0.00	-0.153809	0.075684	0.958496	24.850000	-7.420000	4.340000	529.00	-0.23	-0.13
1.05	3.25	4.75	4.75	7.25	5.75	12.00	0.50	5.50	0.25	0.00	0.25	0.50	2.00	0.50	0.00	0.00	-0.205566	0.085449	0.948730	4.900000	10.500000	-0.420000	528.00	-0.17	-0.17	7.50	6.50	6.00	9.75	5.00	10.75	0.00	2.25	0.00	0.00	0.25	0.50	0.25	0.25	0.00	0.00	-0.147949	0.079102	0.975098	22.540001	-8.960000	3.640000	530.00	-0.24	-0.12
1.06	3.25	4.50	5.00	7.25	5.75	11.50	0.25	5.25	0.00	0.00	0.50	0.50	2.00	0.75	0.00	0.00	-0.206543	0.088379	0.948242	3.500000	10.290000	-0.560000	517.00	-0.17	-0.17	8.00	7.25	6.50	10.00	5.00	10.75	0.00	2.50	0.00	0.00	0.00	0.25	0.50	0.25	0.00	0.00	-0.140625	0.085938	0.969238	18.129999	-9.870000	3.360000	551.00	-0.25	-0.12
1.07	3.50	4.75	5.00	7.25	5.75	11.50	0.25	5.00	0.25	0.00	0.25	0.50	1.50	0.75	0.00	0.00	-0.201172	0.083008	0.946289	2.520000	10.290000	-0.630000	514.00	-0.18	-0.16	8.75	7.50	6.75	10.25	5.00	10.75	0.00	2.25	0.00	0.00	0.00	0.25	0.25	0.50	0.00	0.00	-0.148438	0.086914	0.998047	15.750000	-9.940000	3.220000	563.00	-0.25	-0.11
1.08	3.75	4.75	5.00	7.25	6.25	11.00	0.25	5.00	0.25	0.00	0.50	0.50	1.75	0.50	0.00	0.00	-0.214844	0.087891	0.949707	0.280000	10.220000	-0.350000	519.00	-0.18	-0.16	9.25	7.75	7.25	10.50	5.00	10.75	0.00	2.25	0.00	0.00	0.00	0.50	0.25	0.25	0.00	0.00	-0.142578	0.083496	0.992188	16.590000	-11.550000	3.010000	579.00	-0.25	-0.11
1.09	3.75	5.00	5.00	7.25	6.00	10.75	0.25	4.75	0.25	0.00	0.50	0.50	1.50	0.75	0.00	0.00	-0.207031	0.082031	0.944336	-1.680000	9.870000	-0.280000	512.00	-0.18	-0.15	9.75	8.00	7.25	10.50	5.00	10.50	0.00	2.00	0.00	0.00	0.25	0.50	0.50	0.25	0.00	0.00	-0.133789	0.088867	0.969727	11.690000	-12.670000	2.590000	585.00	-0.25	-0.11
1.10	4.00	5.00	5.00	7.75	5.75	11.00	0.25	4.50	0.25	0.00	0.25	0.50	1.25	0.50	0.00	0.00	-0.205566	0.081543	0.950684	-2.240000	9.380000	-0.420000	510.00	-0.19	-0.15	10.00	8.25	7.50	10.50	5.00	10.50	0.00	1.75	0.00	0.00	0.00	0.50	0.00	0.00	0.00	0.00	-0.140137	0.093750	0.960449	6.580000	-11.060000	2.520000	579.00	-0.26	-0.10
1.11	4.00	5.00	5.25	7.50	6.00	10.75	0.25	4.25	0.50	0.00	0.25	0.50	1.50	0.50	0.00	0.00	-0.200195	0.086914	0.950684	-2.800000	9.030000	-0.770000	511.00	-0.18	-0.14	10.50	8.75	7.50	10.75	4.75	10.50	0.00	1.75	0.00	0.00	0.00	0.00	0.25	0.00	0.00	0.00	-0.136230	0.095215	0.963379	2.660000	-8.610000	2.100000	586.00	-0.27	-0.10
1.12	4.25	5.25	5.25	7.75	6.00	10.50	0.25	4.00	0.00	0.00	0.25	0.50	1.50	0.50	0.00	0.00	-0.204590	0.079590	0.953613	-3.780000	8.820000	-0.630000	506.00	-0.19	-0.15	10.75	8.50	7.50	10.75	4.75	10.50	0.00	1.75	0.00	0.00	0.00	0.25	0.00	0.25	0.00	0.00	-0.132324	0.094727	0.965332	-0.420000	-5.950000	1.890000	589.00	-0.27	-0.10
1.13	4.25	5.00	5.25	7.75	5.75	10.25	0.50	4.00	0.25	0.00	0.25	0.50	1.25	0.50	0.00	0.00	-0.211426	0.082520	0.952148	-5.320000	8.050000	-0.980000	503.00	-0.19	-0.14	11.00	9.00	7.75	10.75	5.00	10.25	0.00	1.75	0.00	0.00	0.00	0.25	0.00	0.00	0.00	0.00	-0.133789	0.096191	0.963379	-2.730000	-3.780000	1.750000	597.00	-0.27	-0.10
1.14	4.25	5.25	5.25	7.75	6.00	10.25	0.50	3.75	0.00	0.00	0.50	0.25	1.25	0.75	0.00	0.00	-0.214844	0.079590	0.953125	-5.740000	7.910000	-0.980000	503.00	-0.19	-0.14	10.75	9.00	7.50	10.75	5.00	10.25	0.00	1.50	0.00	0.00	0.00	0.25	0.00	0.25	0.00	0.00	-0.138184	0.094727	0.979980	-4.480000	-2.240000	1.610000	590.00	-0.27	-0.10
1.15	4.25	5.00	5.50	8.00	5.75	10.00	0.25	3.75	0.25	0.00	0.50	0.50	1.25	0.50	0.00	0.00	-0.210449	0.080078	0.946777	-5.810000	7.420000	-0.910000	501.00	-0.19	-0.14	11.25	9.00	7.75	10.75	5.00	10.00	0.00	1.50	0.00	0.00	0.00	0.25	0.25	0.25	0.00	0.00	-0.141113	0.091797	0.984375	-4.340000	-2.520000	1.680000	597.00	-0.27	-0.09
1.16	4.75	5.25	5.50	7.75	6.00	10.00	0.50	3.50	0.00	0.00	0.25	0.25	1.25	1.00	0.00	0.00	-0.210449	0.080078	0.950684	-6.720000	7.280000	-0.770000	504.00	-0.20	-0.13	11.25	9.00	7.75	10.50	5.00	10.00	0.00	1.25	0.00	0.00	0.00	0.25	0.25	0.25	0.00	0.00	-0.143066	0.093750	0.984863	-3.150000	-3.430000	1.610000	591.00	-0.27	-0.09
1.17	4.50	5.25	5.50	8.00	5.75	10.00	0.50	3.50	0.25	0.00	0.25	0.25	1.25	0.75	0.00	0.00	-0.210938	0.080078	0.952148	-6.930000	7.280000	-0.770000	503.00	-0.20	-0.13	11.50	9.25	7.75	10.75	5.00	9.75	0.00	1.50	0.00	0.00	0.00	0.00	0.00	0.25	0.00	0.00	-0.138672	0.094727	0.982910	-2.170000	-4.200000	1.750000	594.00	-0.27	-0.09
1.18	4.50	5.25	5.50	8.00	6.00	9.75	0.25	3.50	0.25	0.00	0.25	0.50	1.25	0.75	0.00	0.00	-0.218750	0.080566	0.950195	-5.040000	7.210000	-0.770000	501.00	-0.20	-0.13	11.50	9.00	7.75	10.50	4.75	9.75	0.00	1.25	0.00	0.00	0.00	0.00	0.00	0.25	0.00	0.00	-0.136230	0.095703	0.981934	-2.100000	-4.060000	1.890000	583.00	-0.28	-0.09
1.19	5.00	5.25	5.50	8.00	6.00	10.00	0.50	3.50	0.25	0.00	0.25	0.25	1.25	0.50	0.00	0.00	-0.214355	0.083984	0.950195	-3.150000	7.210000	-0.770000	508.00	-0.20	-0.13	11.50	9.00	7.50	10.75	4.75	9.75	0.00	1.25	0.00	0.00	0.00	0.25	0.00	0.00	0.00	0.00	-0.143066	0.095215	0.988281	-1.890000	-4.200000	1.960000	583.00	-0.28	-0.09
1.20	5.00	5.50	6.00	8.25	6.25	10.00	0.25	3.25	0.25	0.00	0.25	0.00	1.25	0.25	0.00	0.00	-0.208984	0.075684	0.949219	-2.800000	7.140000	-0.840000	509.00	-0.21	-0.13	11.50	9.25	7.75	10.75	5.00	9.50	0.00	1.25	0.00	0.00	0.00	0.00	0.00	0.25	0.00	0.00	-0.140137	0.094727	0.974121	-1.540000	-4.480000	1.960000	588.00	-0.28	-0.09
1.21	5.00	5.50	5.75	8.25	6.00	9.75	0.50	3.50	0.25	0.00	0.50	0.25	1.00	0.50	0.00	0.00	-0.214355	0.078125	0.949707	-2.730000	6.790000	-0.840000	514.00	-0.20	-0.13	11.25	9.00	7.75	10.50	5.00	9.50	0.00	1.25	0.00	0.00	0.00	0.25	0.00	0.25	0.00	0.00	-0.130859	0.096191	0.969727	-1.960000	-4.200000	2.100000	583.00	-0.27	-0.09
1.22	5.50	5.50	6.00	8.25	6.25	9.75	0.25	3.25	0.25	0.00	0.25	0.25	1.25	0.75	0.00	0.00	-0.214844	0.080566	0.951660	-1.330000	7.070000	-0.980000	519.00	-0.21	-0.12	11.25	9.00	7.75	10.50	4.75	9.50	0.00	1.00	0.00	0.00	0.00	0.25	0.00	0.25	0.00	0.00	-0.141602	0.100098	0.969727	-2.730000	-3.290000	2.100000	576.00	-0.28	-0.09
1.23	5.75	5.75	6.00	8.50	6.25	10.00	0.50	3.25	0.50	0.00	0.50	0.25	1.25	0.75	0.00	0.00	-0.216797	0.079590	0.949219	0.280000	7.210000	-0.700000	539.00	-0.20	-0.12	11.75	9.00	7.75	10.50	5.00	9.25	0.00	1.00	0.00	0.00	0.00	0.25	0.00	0.25	0.00	0.00	-0.138672	0.096680	0.972168	-3.990000	-2.100000	2.100000	582.00	-0.28	-0.08
1.24	6.00	5.75	6.00	8.75	6.25	10.00	0.50	3.25	0.25	0.00	0.25	0.25	1.25	0.25	0.00	0.00	-0.213867	0.078613	0.946289	0.420000	6.720000	-0.140000	534.00	-0.21	-0.12	11.75	9.00	7.75	10.50	4.75	9.25	0.00	1.25	0.00	0.00	0.00	0.00	0.00	0.00	0.00	0.00	-0.138184	0.096680	0.980957	-4.270000	-2.100000	2.030000	578.00	-0.28	-0.09
1.25	6.25	6.25	6.25	8.75	6.25	10.25	0.25	3.25	0.25	0.00	0.25	0.25	1.25	0.50	0.00	0.00	-0.213379	0.077148	0.954590	-0.350000	6.860000	-0.140000	545.00	-0.21	-0.12	11.25	9.00	7.75	10.25	4.50	9.00	0.00	1.00	0.00	0.00	0.00	0.00	0.00	0.00	0.00	0.00	-0.137695	0.095215	0.990723	-3.430000	-2.940000	1.890000	561.00	-0.28	-0.09
1.26	6.00	6.25	6.50	9.00	6.00	10.75	0.25	3.25	0.50	0.00	0.50	0.25	1.25	0.50	0.00	0.00	-0.212402	0.079590	0.956543	-0.770000	6.650000	-0.280000	556.00	-0.21	-0.12	11.25	8.75	7.75	10.25	4.75	9.00	0.00	1.00	0.00	0.00	0.00	0.00	0.00	0.25	0.00	0.00	-0.141113	0.098633	0.984375	-2.380000	-3.710000	1.890000	563.00	-0.28	-0.08
1.27	6.25	6.50	6.75	9.00	6.25	11.00	0.50	3.25	0.50	0.00	0.25	0.50	1.25	0.75	0.00	0.00	-0.208008	0.076172	0.936035	-1.890000	5.040000	-0.490000	576.00	-0.21	-0.12	11.00	8.75	7.50	10.00	4.75	8.75	0.00	0.75	0.00	0.00	0.00	0.00	0.00	0.00	0.00	0.00	-0.143555	0.095703	0.977539	-1.680000	-4.270000	1.960000	547.00	-0.28	-0.08
1.28	6.50	6.75	6.75	9.25	6.25	11.00	0.25	3.50	0.25	0.00	0.25	0.25	1.25	0.25	0.00	0.00	-0.202148	0.080566	0.941895	-6.090000	3.640000	-0.980000	573.00	-0.22	-0.13	10.75	8.50	7.50	10.00	4.50	8.75	0.00	1.00	0.00	0.00	0.00	0.00	0.00	0.25	0.00	0.00	-0.143555	0.095703	0.977539	-1.260000	-4.130000	2.240000	545.00	-0.28	-0.09
1.29	6.75	7.00	6.75	9.25	6.50	12.00	0.50	3.75	0.25	0.00	0.25	0.50	1.25	0.75	0.00	0.00	-0.213379	0.074707	0.957031	-9.030000	3.080000	-1.400000	606.00	-0.21	-0.13	10.50	8.50	7.50	9.75	4.50	8.75	0.00	1.00	0.00	0.00	0.00	0.00	0.00	0.25	0.00	0.00	-0.134766	0.096680	0.955566	-2.870000	-2.030000	1.960000	540.00	-0.28	-0.09
1.30	6.75	7.00	7.00	9.50	6.50	11.75	0.50	3.75	0.50	0.00	0.25	0.25	1.25	0.75	0.00	0.00	-0.213867	0.075684	0.956543	-8.750000	3.010000	-1.400000	609.00	-0.21	-0.12	10.25	8.25	7.25	9.50	4.25	8.50	0.00	1.00	0.00	0.00	0.00	0.00	0.00	0.25	0.00	0.00	-0.135254	0.097656	0.967773	-5.530000	0.770000	1.610000	524.00	-0.28	-0.09
1.31	7.25	7.00	7.00	9.75	6.75	12.50	0.25	3.75	0.00	0.00	0.50	0.25	1.25	0.75	0.00	0.00	-0.210938	0.076172	0.951172	-7.210000	3.080000	-1.400000	621.00	-0.21	-0.13	9.75	8.00	7.25	9.50	4.25	8.50	0.00	0.75	0.00	0.00	0.00	0.00	0.00	0.00	0.00	0.00	-0.132812	0.091797	0.971191	-7.280000	2.380000	1.400000	510.00	-0.28	-0.09
1.32	7.25	7.75	7.25	9.75	6.75	12.50	0.50	4.00	0.00	0.00	0.25	0.25	1.25	0.50	0.00	0.00	-0.215820	0.079590	0.952148	-7.000000	3.010000	-1.470000	633.00	-0.22	-0.13	9.50	8.00	7.00	9.25	4.50	8.25	0.00	0.75	0.00	0.00	0.00	0.00	0.00	0.25	0.00	0.00	-0.136719	0.091797	0.957520	-9.590000	4.060000	0.840000	504.00	-0.28	-0.09
1.33	7.50	7.75	7.50	10.25	7.00	12.50	0.50	4.00	0.00	0.00	0.50	0.50	1.50	0.75	0.00	0.00	-0.212891	0.073730	0.957520	-6.300000	3.290000	-1.400000	656.00	-0.21	-0.13	9.25	7.75	7.00	9.25	4.25	8.25	0.00	1.00	0.00	0.00	0.00	0.00	0.00	0.25	0.00	0.00	-0.139160	0.091797	0.969238	-12.180000	5.740000	0.420000	500.00	-0.27	-0.09
1.34	7.75	8.25	7.50	10.50	7.00	13.25	0.50	4.25	0.00	0.00	0.50	0.25	1.50	0.75	0.00	0.00	-0.214355	0.073242	0.956055	-4.970000	3.920000	-1.050000	676.00	-0.21	-0.13	8.75	7.25	6.75	9.00	4.25	8.00	0.25	1.00	0.00	0.00	0.00	0.00	0.25	0.25	0.00	0.00	-0.138184	0.086426	0.966309	-13.860000	6.790000	0.350000	488.00	-0.27	-0.09
1.35	8.50	8.50	7.25	10.75	7.25	13.75	0.50	4.25	0.50	0.00	0.50	0.50	1.50	0.75	0.00	0.00	-0.213867	0.070801	0.952637	-4.550000	3.990000	-0.980000	703.00	-0.21	-0.12	8.50	7.00	6.50	9.00	4.25	8.00	0.00	1.00	0.00	0.00	0.00	0.25	0.25	0.00	0.00	0.00	-0.144043	0.088379	0.983887	-14.980000	7.490000	0.350000	477.00	-0.27	-0.10
1.36	9.00	9.00	8.00	11.50	7.25	13.75	0.50	4.50	0.50	0.00	0.50	0.25	1.50	0.75	0.00	0.00	-0.215332	0.070801	0.958496	-4.130000	3.920000	-0.910000	730.00	-0.21	-0.12	7.75	6.75	6.25	8.50	4.25	7.75	0.25	1.00	0.00	0.00	0.00	0.00	0.00	0.25	0.00	0.00	-0.147461	0.084961	0.979492	-15.820000	6.720000	0.280000	457.00	-0.27	-0.09
1.37	9.00	9.75	8.25	11.75	7.50	14.25	0.50	4.75	0.25	0.00	0.50	0.50	1.50	0.75	0.00	0.00	-0.208008	0.068848	0.949707	-3.920000	3.990000	-1.050000	754.00	-0.22	-0.13	7.00	6.25	6.00	8.25	4.00	7.50	0.25	1.25	0.00	0.00	0.00	0.00	0.00	0.25	0.00	0.00	-0.141113	0.083008	0.975586	-18.200001	6.020000	0.140000	438.00	-0.26	-0.10
1.38	9.50	10.25	8.25	12.25	7.50	15.25	0.25	4.50	0.25	0.00	0.50	0.50	1.50	0.75	0.00	0.00	-0.206543	0.070312	0.954590	-4.550000	3.360000	-0.980000	773.00	-0.22	-0.13	6.25	6.00	5.75	8.00	3.75	7.50	0.25	1.25	0.00	0.00	0.00	0.25	0.00	0.00	0.00	0.00	-0.138672	0.078613	0.976074	-20.440001	5.810000	-0.000000	420.00	-0.26	-0.10
1.39	10.25	10.75	8.50	12.75	8.00	15.50	0.50	4.75	0.25	0.00	0.25	0.50	1.75	1.00	0.00	0.00	-0.206055	0.071777	0.952637	-5.040000	2.730000	-1.190000	811.00	-0.22	-0.13	5.75	5.25	5.25	7.50	3.75	7.50	0.25	1.25	0.00	0.00	0.00	0.25	0.25	0.00	0.00	0.00	-0.137207	0.077637	0.977051	-23.660000	5.530000	-0.490000	399.00	-0.25	-0.11
1.40	11.50	11.75	9.00	13.50	8.00	16.00	0.50	5.00	0.50	0.00	0.50	0.25	1.50	1.00	0.00	0.00	-0.209473	0.070312	0.947266	-5.390000	2.310000	-1.330000	857.00	-0.22	-0.12	4.75	4.75	5.00	6.75	3.50	7.00	0.25	1.00	0.00	0.00	0.00	0.25	0.25	0.25	0.00	0.00	-0.138184	0.068359	0.988770	-27.370001	5.530000	-1.330000	363.00	-0.24	-0.11
1.41	12.00	12.25	9.25	14.00	8.25	16.75	0.50	5.00	0.25	0.00	0.25	0.75	1.75	1.00	0.00	0.00	-0.204102	0.062988	0.944824	-6.020000	1.610000	-1.400000	888.00	-0.22	-0.12	4.00	3.50	4.25	6.25	3.00	6.50	0.25	1.25	0.00	0.00	0.25	0.50	0.50	0.25	0.00	0.00	-0.157227	0.065918	0.985352	-30.940001	5.250000	-2.380000	330.00	-0.22	-0.12
1.42	13.00	13.50	9.75	14.75	8.50	17.50	0.50	5.25	0.25	0.00	0.50	0.25	1.75	1.25	0.00	0.00	-0.205566	0.068359	0.949707	-7.070000	0.910000	-1.610000	938.00	-0.23	-0.12	3.25	3.00	3.25	5.50	2.75	6.00	0.25	1.25	0.00	0.00	0.25	0.50	0.50	0.25	0.00	0.00	-0.152344	0.061523	0.989258	-33.389999	4.690000	-3.710000	290.00	-0.21	-0.13
1.43	14.00	14.00	10.00	15.50	9.00	18.00	0.50	5.25	0.50	0.00	0.50	0.75	1.75	1.00	0.00	0.00	-0.202637	0.064941	0.950195	-7.770000	-0.350000	-1.610000	981.00	-0.23	-0.12	2.25	2.50	2.75	5.25	2.25	5.00	0.25	1.00	0.00	0.00	0.00	0.50	0.50	0.25	0.00	0.00	-0.178711	0.052246	1.002930	-32.130001	3.920000	-4.480000	244.00	-0.21	-0.14
1.44	15.25	15.25	10.50	16.50	9.25	18.75	0.50	5.50	0.25	0.00	0.50	0.75	1.75	1.25	0.00	0.00	-0.201172	0.069336	0.954590	-9.240000	-1.260000	-1.750000	1035.00	-0.23	-0.12	2.25	2.25	2.25	4.50	2.00	4.25	0.25	1.25	0.00	0.00	0.25	0.50	0.50	0.25	0.00	0.00	-0.153809	0.063965	1.023438	-25.340000	4.200000	-4.900000	224.00	-0.20	-0.14
1.45	16.00	16.00	11.25	17.25	9.50	19.50	0.50	5.75	0.50	0.00	0.50	0.50	1.75	1.00	0.00	0.25	-0.206055	0.062988	0.954590	-9.170000	-1.890000	-1.750000	1081.00	-0.23	-0.12	1.75	2.00	1.75	3.50	1.25	3.00	0.25	0.75	0.00	0.00	0.25	0.50	0.75	0.25	0.00	0.00	-0.142578	0.059082	0.990723	-17.219999	5.390000	-7.140000	173.00	-0.20	-0.14
1.46	17.50	16.50	11.75	17.75	10.00	20.25	0.50	5.75	0.25	0.00	0.75	0.75	2.00	1.25	0.00	0.00	-0.200684	0.069824	0.961426	-7.770000	-1.680000	-1.470000	1131.00	-0.23	-0.12	1.25	1.00	1.50	3.00	0.75	2.00	0.00	0.75	0.00	0.00	0.25	0.50	0.50	0.50	0.00	0.00	-0.130859	0.061035	0.996582	-15.400000	7.560000	-10.010000	130.00	-0.18	-0.15
1.47	18.25	17.50	12.00	18.50	10.25	20.75	0.50	6.00	0.25	0.00	0.50	0.75	2.25	1.25	0.00	0.25	-0.197266	0.060059	0.952637	-7.280000	-1.470000	-1.470000	1172.00	-0.23	-0.12	1.25	1.00	1.00	2.25	0.50	1.00	0.00	0.75	0.00	0.00	0.25	0.25	0.00	0.25	0.00	0.00	-0.179199	0.087402	0.968262	-13.580000	10.430000	-13.720000	93.00	-0.21	-0.13
1.48	18.50	18.25	12.50	19.25	10.75	21.50	0.50	6.25	0.50	0.25	0.75	0.75	2.25	1.25	0.00	0.25	-0.198730	0.057129	0.961426	-6.650000	-1.260000	-1.330000	1221.00	-0.23	-0.12	1.00	0.50	1.00	2.75	0.25	0.75	0.00	0.25	0.00	0.00	0.00	0.00	0.25	0.50	0.00	0.00	-0.220703	0.088379	1.031738	23.240000	68.250000	-18.059999	77.00	-0.22	-0.12
1.49	19.75	19.00	12.75	19.75	10.75	21.75	0.50	6.50	0.25	0.25	0.50	1.00	2.25	1.00	0.00	0.25	-0.196289	0.057129	0.950684	-4.760000	-0.070000	-1.260000	1250.00	-0.24	-0.12	0.75	0.75	0.75	2.25	0.25	0.75	0.00	0.00	0.00	0.00	0.00	0.00	0.00	0.25	0.00	0.00	-0.251465	0.100098	1.059570	38.150002	107.169998	-20.230000	61.00	-0.26	-0.11
1.50	19.50	19.25	13.25	20.00	11.00	22.50	0.75	6.75	0.00	0.00	0.75	0.75	2.25	1.00	0.25	0.25	-0.193848	0.051758	0.960449	-3.430000	0.770000	-1.190000	1274.00	-0.23	-0.12	0.75	0.75	0.75	1.75	0.25	0.25	0.00	0.00	0.00	0.00	0.00	0.25	0.00	0.25	0.00	0.00	-0.207520	0.143555	1.316895	29.190001	139.789993	-25.969999	52.00	-0.25	-0.09
1.51	19.00	19.50	12.75	20.25	11.25	23.00	0.50	6.75	0.25	0.00	0.75	0.75	2.50	1.00	0.25	0.00	-0.190430	0.059570	0.959961	-2.660000	1.330000	-1.190000	1276.00	-0.23	-0.12	0.75	0.00	0.75	1.50	0.00	0.25	0.00	0.00	0.00	0.00	0.00	0.25	0.00	0.00	0.00	0.00	-0.169434	0.183594	1.280762	10.920000	144.270004	-36.610001	38.00	0.00	0.00
1.52	19.25	19.50	13.25	20.75	11.75	23.25	0.75	7.00	0.25	0.00	1.00	0.75	2.75	1.25	0.00	0.50	-0.184570	0.060547	0.952148	-2.870000	0.350000	-1.330000	1313.00	-0.23	-0.12	0.75	0.00	0.50	1.25	0.00	0.00	0.00	0.00	0.00	0.00	0.00	0.00	0.00	0.25	0.00	0.00	-0.137695	0.248047	1.319824	10.220000	141.750000	-47.810001	29.00	0.00	0.00
1.53	18.75	18.75	13.00	20.50	12.00	23.75	0.50	7.25	0.75	0.25	0.75	1.00	2.75	1.25	0.25	0.50	-0.195312	0.059570	0.957031	-3.850000	-1.680000	-1.820000	1315.00	-0.22	-0.12	0.75	0.00	0.50	1.75	0.00	0.00	0.00	0.00	0.00	0.00	0.00	0.00	0.00	0.00	0.00	0.00	-0.071289	0.232910	1.477539	17.500000	132.580002	-58.869999	33.00	0.00	0.00
1.54	18.25	18.50	12.75	20.25	12.50	24.00	0.75	7.50	0.50	0.25	1.00	1.00	3.00	1.25	0.25	0.50	-0.188477	0.059570	0.957031	-3.850000	-1.680000	-1.820000	1320.00	-0.22	-0.12	0.50	0.25	0.50	1.50	0.00	0.00	0.00	0.00	0.00	0.00	0.00	0.00	0.00	0.00	0.00	0.00	0.169434	0.293457	1.324707	28.070000	122.150002	-67.199997	30.00	0.00	0.00
1.55	17.50	17.75	12.75	19.75	12.25	24.25	0.75	7.75	0.50	0.00	1.00	1.00	3.25	1.50	0.00	0.50	-0.192383	0.059082	0.954102	-3.430000	-0.350000	-1.820000	1302.00	-0.22	-0.13	0.50	0.00	0.25	1.25	0.00	0.00	0.00	0.00	0.00	0.00	0.00	0.00	0.00	0.00	0.00	0.00	0.811523	0.304199	1.417969	19.670000	101.779999	-66.639999	22.00	0.00	0.00
1.56	16.75	17.25	12.25	19.50	12.75	24.00	0.75	7.75	0.75	0.25	1.00	1.50	3.25	1.50	0.25	0.50	-0.191406	0.054199	0.955078	-3.360000	0.070000	-1.890000	1298.00	-0.21	-0.13	0.00	0.25	0.25	1.00	0.00	0.00	0.00	0.00	0.00	0.00	0.00	0.00	0.00	0.00	0.00	0.00	0.613770	0.426758	1.702637	-8.820000	65.169998	-52.290001	16.00	0.00	0.00
1.57	16.25	16.50	12.50	19.00	12.50	24.00	0.75	8.00	0.50	0.25	1.00	1.25	3.50	1.50	0.25	0.75	-0.187500	0.054688	0.956543	-3.640000	0.420000	-1.890000	1282.00	-0.21	-0.13	0.25	0.00	0.25	1.00	0.00	0.00	0.00	0.00	0.00	0.00	0.00	0.00	0.00	0.00	0.00	0.00	0.845215	0.485840	1.456055	-25.059999	37.590000	-31.990000	16.00	0.00	0.00
1.58	15.50	16.00	12.25	18.75	13.00	23.75	0.75	8.00	0.50	0.50	1.00	1.25	3.50	1.25	0.25	0.50	-0.181152	0.064453	0.956543	-3.850000	0.420000	-2.030000	1266.00	-0.21	-0.13	0.25	0.00	0.00	0.75	0.00	0.00	0.00	0.00	0.00	0.00	0.00	0.00	0.00	0.00	0.00	0.00	0.807129	0.510742	1.074707	-21.139999	11.620000	-14.280000	11.00	0.00	0.00
1.59	14.50	15.25	12.00	18.00	13.25	23.50	0.75	8.25	0.75	0.50	1.25	1.25	3.75	1.75	0.25	0.75	-0.181152	0.053223	0.951172	-4.410000	-0.700000	-2.380000	1255.00	-0.20	-0.13	0.25	0.25	0.25	1.25	0.00	0.00	0.00	0.00	0.00	0.00	0.00	0.00	0.00	0.00	0.00	0.00	0.777344	0.452148	0.859375	-6.300000	-0.140000	-2.450000	21.00	0.00	0.00
1.60	13.75	13.75	12.00	17.25	13.75	23.50	0.75	8.25	0.75	0.75	1.25	1.50	3.75	2.25	0.25	0.75	-0.176270	0.059570	0.957031	-5.530000	-1.890000	-2.870000	1240.00	-0.19	-0.13	0.50	0.00	0.00	0.75	0.00	0.00	0.00	0.00	0.00	0.00	0.00	0.00	0.00	0.00	0.00	0.00	0.798828	0.367676	0.869629	5.250000	-7.000000	6.860000	13.00	0.00	0.00
1.61	13.00	12.75	11.50	16.50	14.00	23.00	0.75	8.25	0.75	0.75	1.50	1.75	4.00	2.25	0.50	0.75	-0.181641	0.057617	0.955566	-6.510000	-2.240000	-3.290000	1217.00	-0.18	-0.13	0.50	0.00	0.00	0.75	0.00	0.00	0.00	0.00	0.00	0.00	0.00	0.00	0.00	0.00	0.00	0.00	0.841309	0.323730	0.981934	10.990000	-17.710001	15.820000	13.00	0.00	0.00
1.62	11.25	11.75	11.50	15.75	14.50	22.50	1.00	8.25	1.25	1.00	1.75	1.75	4.25	2.25	0.50	0.75	-0.183594	0.058105	0.958984	-7.140000	-1.960000	-3.500000	1199.00	-0.17	-0.13	0.25	0.00	0.25	1.00	0.00	0.00	0.00	0.00	0.00	0.00	0.00	0.00	0.00	0.00	0.00	0.00	0.852051	0.260742	1.000488	14.280000	-33.599998	24.219999	16.00	0.00	0.00
1.63	10.00	10.25	11.00	14.75	15.00	22.00	1.00	8.25	1.25	1.00	1.50	1.75	4.25	3.25	0.50	1.00	-0.183105	0.059570	0.958984	-7.490000	-1.540000	-3.570000	1163.00	-0.16	-0.13	0.25	0.25	0.25	1.00	0.00	0.00	0.00	0.00	0.00	0.00	0.00	0.00	0.00	0.00	0.00	0.00	0.814453	0.208496	1.013184	16.520000	-50.540001	30.309999	19.00	0.00	0.00
1.64	9.75	9.75	11.00	14.00	15.25	21.50	1.00	8.25	1.25	1.25	2.00	1.75	4.25	3.00	0.50	0.75	-0.181641	0.049316	0.960449	-7.630000	-0.490000	-3.640000	1149.00	-0.15	-0.12	0.50	0.00	0.00	0.75	0.00	0.00	0.00	0.00	0.00	0.00	0.00	0.00	0.00	0.00	0.00	0.00	0.767090	0.163086	1.050293	19.320000	-66.150002	33.810001	13.00	0.00	0.00
1.65	9.00	9.00	10.50	13.00	15.75	21.25	1.00	8.00	1.50	1.50	2.00	2.00	4.25	3.25	0.75	1.00	-0.175781	0.051270	0.961914	-7.910000	0.210000	-3.710000	1132.00	-0.14	-0.12	0.25	0.00	0.00	1.00	0.00	0.00	0.00	0.00	0.00	0.00	0.00	0.00	0.00	0.00	0.00	0.00	0.708496	0.104980	1.047852	22.190001	-79.940002	35.700001	14.00	0.00	0.00
1.66	8.25	8.75	10.25	12.25	16.25	20.75	1.25	8.00	2.00	1.50	2.00	1.75	4.25	3.75	0.75	1.00	-0.182129	0.046387	0.958496	-7.630000	0.770000	-3.500000	1123.00	-0.13	-0.12	0.25	0.00	0.00	1.00	0.00	0.00	0.00	0.00	0.00	0.00	0.00	0.00	0.00	0.00	0.00	0.00	0.644043	0.059570	1.096191	23.379999	-92.260002	37.029999	14.00	0.00	0.00
1.67	8.00	8.00	10.00	11.50	16.75	20.25	1.50	8.00	2.00	1.75	2.25	2.00	4.25	4.00	0.75	1.25	-0.176270	0.053711	0.954102	-7.210000	0.560000	-3.080000	1117.00	-0.12	-0.11	0.25	0.00	0.00	0.50	0.00	0.00	0.00	0.00	0.00	0.00	0.00	0.00	0.00	0.00	0.00	0.00	0.569824	0.032715	1.126953	22.680000	-103.739998	38.360001	8.00	0.00	0.00
1.68	7.50	7.50	10.00	11.00	16.50	19.50	1.50	7.75	2.50	2.00	2.25	2.00	4.50	4.25	0.75	1.25	-0.176270	0.049316	0.957031	-6.720000	0.980000	-2.870000	1101.00	-0.12	-0.11	0.25	0.00	0.00	0.75	0.00	0.00	0.00	0.00	0.00	0.00	0.00	0.00	0.00	0.00	0.00	0.00	0.494141	0.020508	1.158203	20.370001	-114.449997	39.200001	11.00	0.00	0.00
1.69	6.50	7.25	9.50	10.00	17.00	19.00	1.75	7.75	2.50	2.25	2.50	2.00	4.25	4.75	0.75	1.25	-0.174316	0.050293	0.966797	-6.510000	1.400000	-2.800000	1083.00	-0.11	-0.11	0.25	0.00	0.00	0.75	0.00	0.00	0.00	0.00	0.00	0.00	0.00	0.00	0.00	0.00	0.00	0.00	0.309570	-0.000977	1.184570	15.960000	-130.550003	38.849998	11.00	0.00	0.00
1.70	6.50	7.00	9.50	9.50	17.00	18.75	2.00	7.75	3.25	2.50	2.50	2.25	4.50	5.00	1.00	1.25	-0.181152	0.046875	0.957520	-6.230000	2.030000	-2.800000	1098.00	-0.10	-0.10	0.25	0.00	0.00	0.50	0.00	0.00	0.00	0.00	0.00	0.00	0.00	0.00	0.00	0.00	0.00	0.00	0.223633	-0.006836	1.213867	11.620000	-134.539993	37.799999	8.00	0.00	0.00
1.71	6.00	6.50	9.25	9.00	17.00	18.00	2.25	7.50	3.75	2.75	3.00	2.25	4.50	5.00	1.00	1.50	-0.172852	0.046875	0.960449	-6.160000	2.240000	-2.660000	1088.00	-0.09	-0.10	0.00	0.00	0.00	0.50	0.00	0.00	0.00	0.00	0.00	0.00	0.00	0.00	0.00	0.00	0.00	0.00	0.139648	-0.007324	1.272461	5.110000	-136.990005	36.189999	5.00	0.00	0.00
1.72	5.75	6.25	8.75	8.50	17.25	17.50	2.50	7.50	4.25	3.00	3.25	2.50	4.25	5.25	1.25	1.25	-0.177734	0.043945	0.966797	-5.880000	2.870000	-2.800000	1088.00	-0.08	-0.09	0.00	0.00	0.00	0.75	0.00	0.00	0.00	0.00	0.00	0.00	0.00	0.00	0.00	0.00	0.00	0.00	0.038086	0.029297	1.370605	-0.420000	-139.789993	34.230000	8.00	0.00	0.00
1.73	5.25	6.25	8.75	8.25	17.25	17.00	2.75	7.50	5.00	3.25	3.25	2.50	4.50	5.50	1.25	1.50	-0.178223	0.039551	0.961426	-5.320000	3.080000	-2.730000	1097.00	-0.07	-0.09	0.00	0.00	0.00	0.25	0.00	0.00	0.00	0.00	0.00	0.00	0.00	0.00	0.00	0.00	0.00	0.00	-0.036621	0.075684	1.431641	-0.420000	-144.479996	32.130001	3.00	0.00	0.00
1.74	5.00	5.75	8.50	8.25	17.25	16.50	3.00	7.50	5.25	3.50	3.50	2.50	4.50	5.75	1.25	1.50	-0.172852	0.046387	0.966797	-4.830000	3.150000	-2.590000	1096.00	-0.06	-0.08	0.00	0.00	0.00	0.25	0.00	0.00	0.00	0.00	0.00	0.00	0.00	0.00	0.00	0.00	0.00	0.00	-0.103027	0.096680	1.397949	3.080000	-149.100006	29.889999	3.00	0.00	0.00
1.75	5.00	5.75	8.25	7.75	17.25	16.00	3.25	7.25	5.50	3.75	3.50	2.50	4.75	5.75	1.25	1.50	-0.172363	0.043457	0.958496	-3.780000	3.710000	-2.100000	1090.00	-0.06	-0.08	0.00	0.00	0.00	0.50	0.00	0.00	0.00	0.00	0.00	0.00	0.00	0.00	0.00	0.00	0.00	0.00	-0.193359	0.085449	1.344238	5.600000	-150.779999	27.230000	5.00	0.00	0.00
1.76	4.75	5.75	8.00	7.50	17.25	15.75	3.50	7.25	6.75	4.00	3.75	2.75	4.50	6.00	1.25	1.50	-0.170410	0.041016	0.960938	-3.430000	3.920000	-2.030000	1107.00	-0.05	-0.07	0.00	0.00	0.00	0.50	0.00	0.00	0.00	0.00	0.00	0.00	0.00	0.00	0.00	0.00	0.00	0.00	-0.261230	0.096191	1.289062	5.110000	-149.169998	24.850000	5.00	0.00	0.00
1.77	4.25	5.75	7.75	7.50	17.25	15.25	3.50	7.25	7.25	4.50	4.00	2.75	4.75	6.25	1.25	1.75	-0.166992	0.039062	0.962891	-3.220000	4.130000	-1.820000	1114.00	-0.04	-0.07	0.00	0.00	0.00	0.25	0.00	0.00	0.00	0.00	0.00	0.00	0.00	0.00	0.00	0.00	0.00	0.00	-0.304688	0.107422	1.211914	3.080000	-143.919998	22.750000	3.00	0.00	0.00
1.78	4.25	5.50	7.50	7.00	16.75	15.00	3.75	7.25	7.75	4.75	4.25	2.75	5.00	6.75	1.50	1.75	-0.173828	0.042480	0.961914	-3.010000	4.130000	-1.610000	1120.00	-0.03	-0.07	0.00	0.00	0.00	0.50	0.00	0.00	0.00	0.00	0.00	0.00	0.00	0.00	0.00	0.00	0.00	0.00	-0.351074	0.119141	1.151367	0.770000	-136.360001	21.139999	5.00	0.00	0.00
1.79	4.00	5.50	7.25	6.75	17.00	14.50	4.00	7.25	8.00	5.50	4.75	3.25	5.00	6.75	1.25	1.75	-0.166504	0.037109	0.959961	-2.800000	4.340000	-1.540000	1132.00	-0.02	-0.06	0.25	0.00	0.00	0.25	0.00	0.00	0.00	0.00	0.00	0.00	0.00	0.00	0.00	0.00	0.00	0.00	-0.385254	0.135254	1.159180	-0.420000	-127.400002	20.230000	5.00	0.00	0.00
1.80	3.75	5.25	7.00	6.75	16.50	14.25	4.25	7.25	8.25	6.25	5.00	3.00	5.00	6.75	1.50	1.75	-0.168457	0.038574	0.959961	-2.730000	4.410000	-1.470000	1133.00	-0.02	-0.06	0.00	0.00	0.00	0.25	0.00	0.00	0.00	0.00	0.00	0.00	0.00	0.00	0.00	0.00	0.00	0.00	-0.390137	0.132324	1.144531	-0.280000	-118.580002	20.719999	3.00	0.00	0.00
1.81	3.50	5.25	6.50	6.50	16.25	13.75	4.25	7.25	8.75	6.50	5.50	3.00	5.00	7.00	1.50	1.75	-0.170410	0.042969	0.958984	-2.520000	5.180000	-1.610000	1131.00	-0.01	-0.06	0.00	0.00	0.00	0.00	0.00	0.00	0.00	0.00	0.00	0.00	0.00	0.00	0.00	0.00	0.00	0.00	-0.403809	0.124512	1.146973	-0.910000	-111.020004	22.469999	0.00	0.00	0.00
1.82	3.25	5.25	6.50	6.00	16.00	13.50	4.50	7.00	9.00	7.00	6.00	3.25	5.00	7.25	1.50	1.75	-0.173828	0.041016	0.958008	-2.380000	5.460000	-1.610000	1136.00	-0.00	-0.05	0.00	0.00	0.00	0.25	0.00	0.00	0.00	0.00	0.00	0.00	0.00	0.00	0.00	0.00	0.00	0.00	-0.407715	0.112305	1.126465	-1.470000	-104.300003	25.340000	3.00	0.00	0.00
1.83	3.25	5.00	6.25	5.50	15.75	13.00	4.75	7.00	9.25	7.50	6.50	3.50	5.00	7.25	1.50	1.75	-0.171875	0.040527	0.964355	-2.240000	5.810000	-1.610000	1137.00	0.01	-0.05	0.00	0.00	0.00	0.00	0.00	0.00	0.00	0.00	0.00	0.00	0.00	0.00	0.00	0.00	0.00	0.00	-0.416016	0.083984	1.092285	-2.730000	-98.279999	28.910000	0.00	0.00	0.00
1.84	3.25	4.75	5.75	5.75	15.25	12.50	4.75	7.00	9.50	8.00	6.75	3.75	5.25	7.75	1.75	1.75	-0.164062	0.040527	0.961426	-1.960000	6.090000	-1.820000	1144.00	0.02	-0.05	0.00	0.00	0.00	0.25	0.00	0.00	0.00	0.00	0.00	0.00	0.00	0.00	0.00	0.00	0.00	0.00	-0.431152	0.071777	1.089355	-5.110000	-93.169998	32.480000	3.00	0.00	0.00
1.85	2.50	5.00	5.50	5.50	14.75	12.25	5.00	7.00	9.75	8.25	7.00	3.75	5.50	7.75	1.75	2.00	-0.170410	0.041992	0.961914	-1.890000	6.580000	-1.960000	1140.00	0.02	-0.05	0.00	0.00	0.00	0.00	0.00	0.00	0.00	0.00	0.00	0.00	0.00	0.00	0.00	0.00	0.00	0.00	-0.421387	0.079102	1.090332	-4.480000	-90.160004	35.700001	0.00	0.00	0.00
1.86	2.75	4.50	5.50	5.25	14.25	11.25	5.00	6.75	10.25	8.50	7.50	4.25	5.50	7.75	1.75	2.00	-0.171387	0.037109	0.965820	-1.750000	6.720000	-2.100000	1135.00	0.03	-0.05	0.00	0.00	0.00	0.50	0.00	0.00	0.00	0.00	0.00	0.00	0.00	0.00	0.00	0.00	0.00	0.00	-0.411621	0.071289	1.031250	-0.420000	-88.340004	38.150002	5.00	0.00	0.00
1.87	2.75	4.50	5.00	5.25	13.75	11.25	5.25	6.75	10.50	8.75	8.00	4.25	5.75	8.00	1.75	2.00	-0.166504	0.043457	0.959473	-1.610000	6.860000	-2.240000	1143.00	0.04	-0.05	0.00	0.00	0.00	0.25	0.00	0.00	0.00	0.00	0.00	0.00	0.00	0.00	0.00	0.00	0.00	0.00	-0.434570	0.057617	0.957031	4.690000	-86.029999	39.130001	3.00	0.00	0.00
1.88	2.50	4.50	5.00	5.25	13.25	10.50	5.25	6.75	10.75	9.00	8.25	4.50	5.75	8.00	1.50	2.00	-0.165527	0.045898	0.958008	-1.400000	7.000000	-2.310000	1135.00	0.04	-0.04	0.00	0.00	0.00	0.25	0.00	0.00	0.00	0.00	0.00	0.00	0.00	0.00	0.00	0.00	0.00	0.00	-0.462402	0.035645	0.900879	9.380000	-82.040001	38.849998	3.00	0.00	0.00
1.89	2.50	4.50	4.50	4.50	12.50	10.00	5.25	6.75	11.25	9.50	8.50	5.00	5.75	8.50	1.75	2.00	-0.170410	0.041504	0.969727	-1.400000	7.000000	-2.310000	1134.00	0.05	-0.04	0.00	0.00	0.00	0.00	0.00	0.00	0.00	0.00	0.00	0.00	0.00	0.00	0.00	0.00	0.00	0.00	-0.505859	-0.043945	0.895020	11.130000	-70.070000	35.209999	0.00	0.00	0.00
1.90	2.25	4.00	4.25	4.25	12.00	9.75	5.25	6.50	11.50	10.00	9.25	5.25	6.00	8.50	2.00	2.25	-0.176270	0.044922	0.957031	-1.330000	7.280000	-2.450000	1135.00	0.06	-0.04	0.00	0.00	0.00	0.25	0.00	0.00	0.00	0.00	0.00	0.00	0.00	0.00	0.00	0.00	0.00	0.00	-0.508789	-0.064941	0.858887	9.450000	-64.260002	31.850000	3.00	0.00	0.00
1.91	2.25	4.00	4.00	4.75	11.25	9.25	5.50	6.50	12.00	10.25	9.50	5.75	6.00	8.75	2.00	2.25	-0.168945	0.042969	0.960938	-1.120000	7.560000	-2.450000	1147.00	0.07	-0.04	0.00	0.00	0.00	0.00	0.00	0.00	0.00	0.00	0.00	0.00	0.00	0.00	0.00	0.00	0.00	0.00	-0.509766	-0.079590	0.811523	8.820000	-58.310001	27.650000	0.00	0.00	0.00
1.92	2.25	3.75	3.75	4.00	10.25	8.75	5.50	6.50	12.25	10.50	10.00	6.00	6.00	9.00	2.00	2.25	-0.176758	0.037598	0.967285	-0.700000	8.120000	-2.310000	1133.00	0.08	-0.04	0.00	0.00	0.00	0.25	0.00	0.00	0.00	0.00	0.00	0.00	0.00	0.00	0.00	0.00	0.00	0.00	-0.515137	-0.099609	0.770508	7.700000	-50.540001	22.120001	3.00	0.00	0.00
1.93	1.75	3.75	3.25	4.25	9.25	8.25	5.50	6.25	12.75	10.75	10.50	6.75	6.50	9.00	2.00	2.50	-0.167480	0.045898	0.962402	0.140000	9.800000	-2.380000	1133.00	0.09	-0.04	0.00	0.00	0.00	0.00	0.00	0.00	0.00	0.00	0.00	0.00	0.00	0.00	0.00	0.00	0.00	0.00	-0.520508	-0.107422	0.758301	5.600000	-41.369999	16.100000	0.00	0.00	0.00
1.94	1.75	3.50	3.00	3.75	8.25	7.75	5.50	6.25	13.00	11.50	11.00	7.00	6.75	9.25	2.00	2.50	-0.167480	0.045898	0.962402	0.140000	9.800000	-2.380000	1129.00	0.10	-0.04	0.00	0.00	0.00	0.00	0.00	0.00	0.00	0.00	0.00	0.00	0.00	0.00	0.00	0.00	0.00	0.00	-0.489746	-0.095215	0.770020	1.470000	-32.410000	9.800000	0.00	0.00	0.00
1.95	2.00	3.50	2.50	3.50	7.25	7.00	5.50	6.25	13.50	11.75	11.50	7.50	6.75	9.50	2.25	2.50	-0.174316	0.042969	0.965820	0.910000	11.060000	-2.310000	1129.00	0.11	-0.04	0.00	0.00	0.00	0.25	0.00	0.00	0.00	0.00	0.00	0.00	0.00	0.00	0.00	0.00	0.00	0.00	-0.468750	-0.061035	0.750000	-2.450000	-24.850000	3.500000	3.00	0.00	0.00
1.96	1.75	3.00	2.00	3.25	6.25	7.00	5.50	5.75	13.75	12.25	12.25	8.00	7.00	9.75	2.50	2.75	-0.173828	0.045898	0.964844	3.990000	15.890000	-2.240000	1124.00	0.12	-0.04	0.00	0.00	0.00	0.25	0.00	0.00	0.00	0.00	0.00	0.00	0.00	0.00	0.00	0.00	0.00	0.00	-0.445312	-0.009277	0.751465	-3.920000	-17.990000	-3.010000	3.00	0.00	0.00
1.97	1.50	2.75	1.75	3.25	5.25	6.50	5.25	5.75	14.25	12.75	12.75	8.25	7.00	9.75	2.25	2.75	-0.172852	0.052246	0.967773	6.090000	19.460001	-2.520000	1113.00	0.13	-0.04	0.00	0.00	0.00	0.00	0.00	0.00	0.00	0.00	0.00	0.00	0.00	0.00	0.00	0.00	0.00	0.00	-0.423340	0.019043	0.756836	-4.620000	-10.710000	-9.310000	0.00	0.00	0.00
1.98	1.25	2.50	2.25	2.75	4.50	6.00	5.25	5.50	14.50	13.25	13.25	8.50	7.25	10.00	2.50	2.75	-0.169922	0.047363	0.964355	9.030000	23.799999	-3.150000	1114.00	0.14	-0.03	0.00	0.00	0.00	0.00	0.00	0.00	0.00	0.00	0.00	0.00	0.00	0.00	0.00	0.00	0.00	0.00	-0.417969	0.056641	0.774902	-5.600000	-4.130000	-14.630000	0.00	0.00	0.00
1.99	1.50	2.50	1.50	2.75	3.75	5.75	5.25	5.25	14.75	13.25	14.00	9.00	7.25	10.25	2.75	3.00	-0.185547	0.052246	0.960938	14.770000	36.189999	-2.800000	1116.00	0.14	-0.03	0.00	0.00	0.00	0.50	0.00	0.00	0.00	0.00	0.00	0.00	0.00	0.00	0.00	0.00	0.00	0.00	-0.424805	0.103027	0.782715	-6.020000	1.400000	-18.129999	5.00	0.00	0.00
2.00	1.50	2.25	1.50	2.50	3.50	5.25	5.00	5.00	15.25	13.75	14.25	9.25	7.25	10.50	2.50	3.00	-0.200684	0.060059	0.970215	20.650000	49.560001	-2.730000	1112.00	0.15	-0.03	0.00	0.00	0.00	0.00	0.00	0.00	0.00	0.00	0.00	0.00	0.00	0.00	0.00	0.00	0.00	0.00	-0.449219	0.146484	0.781738	-5.880000	6.790000	-19.950001	0.00	0.00	0.00
2.01	1.25	2.25	1.25	2.50	2.75	5.00	5.00	4.75	15.50	14.25	15.00	9.50	7.25	10.50	2.50	3.25	-0.177246	0.048340	0.927734	31.010000	65.940002	-10.080000	1112.00	0.16	-0.03	0.00	0.00	0.00	0.25	0.00	0.00	0.00	0.00	0.00	0.00	0.00	0.00	0.00	0.00	0.00	0.00	-0.494141	0.183594	0.759766	-5.390000	12.880000	-20.230000	3.00	0.00	0.00
2.02	1.25	2.25	1.25	2.50	2.50	4.75	4.75	4.25	15.75	14.50	15.50	10.00	7.25	11.00	2.50	3.25	-0.225098	0.075195	0.961914	42.139999	86.379997	-3.850000	1116.00	0.16	-0.03	0.00	0.00	0.00	0.50	0.00	0.00	0.00	0.00	0.00	0.00	0.00	0.00	0.00	0.00	0.00	0.00	-0.538574	0.208496	0.710449	-4.620000	19.670000	-20.160000	5.00	0.00	0.00
2.03	1.50	2.25	1.25	2.50	2.25	4.50	4.50	3.50	16.25	14.75	16.00	10.50	7.00	11.00	2.50	3.25	-0.235840	0.058594	1.026855	46.340000	113.400002	-1.820000	1116.00	0.17	-0.02	0.00	0.00	0.00	0.00	0.00	0.00	0.00	0.00	0.00	0.00	0.00	0.00	0.00	0.00	0.00	0.00	-0.626465	0.227539	0.744629	-3.570000	26.530001	-19.879999	0.00	0.00	0.00
2.04	1.50	2.50	1.00	2.50	2.00	4.25	4.25	3.00	16.25	15.00	16.25	10.50	7.00	11.50	2.50	3.25	-0.262695	0.072754	1.008301	40.389999	139.580002	-4.200000	1108.00	0.17	-0.02	0.00	0.00	0.00	0.00	0.00	0.00	0.00	0.00	0.00	0.00	0.00	0.00	0.00	0.00	0.00	0.00	-0.698730	0.212891	0.743164	-1.470000	33.950001	-20.160000	0.00	0.00	0.00
2.05	1.25	2.25	0.75	2.00	1.75	3.50	4.00	2.75	16.75	15.25	16.50	10.75	6.50	12.00	2.25	3.50	-0.269043	0.069336	1.003906	32.270000	159.180008	-6.370000	1089.00	0.18	-0.01	0.00	0.00	0.00	0.25	0.00	0.00	0.00	0.00	0.00	0.00	0.00	0.00	0.00	0.00	0.00	0.00	-0.774414	0.187988	0.732910	0.420000	42.209999	-21.770000	3.00	0.00	0.00
2.06	1.25	2.25	0.75	2.00	1.75	3.25	3.75	2.25	17.00	15.50	17.00	10.50	6.50	12.25	2.50	3.25	-0.312988	0.084473	0.977051	23.240000	174.580002	-7.700000	1087.00	0.19	-0.01	0.00	0.00	0.00	0.25	0.00	0.00	0.00	0.00	0.00	0.00	0.00	0.00	0.00	0.00	0.00	0.00	-0.802246	0.139160	0.762207	0.280000	51.939999	-24.500000	3.00	0.00	0.00
2.07	1.25	2.25	0.75	1.50	1.50	3.25	3.75	1.75	17.25	15.75	17.00	10.50	6.00	12.50	2.50	3.50	-0.346191	0.100586	1.022949	15.750000	187.529999	-9.100000	1076.00	0.19	-0.00	0.00	0.00	0.00	0.00	0.00	0.00	0.00	0.00	0.00	0.00	0.00	0.00	0.00	0.00	0.00	0.00	-0.728027	0.110840	0.776855	-4.270000	61.599998	-27.510000	0.00	0.00	0.00
2.08	1.00	2.25	0.75	1.75	1.25	3.00	3.50	1.25	17.25	15.75	17.25	10.50	5.75	13.00	2.50	3.50	-0.381348	0.101562	1.039062	9.380000	197.610001	-11.410000	1064.00	0.20	-0.00	0.00	0.00	0.00	0.00	0.00	0.00	0.00	0.00	0.00	0.00	0.00	0.00	0.00	0.00	0.00	0.00	-0.728027	0.121582	0.796387	-10.850000	70.349998	-31.219999	0.00	0.00	0.00
2.09	1.00	2.00	0.75	1.50	1.25	2.50	3.50	1.25	17.25	15.75	17.00	10.25	5.50	13.25	2.50	3.50	-0.410156	0.110352	1.017090	3.640000	202.229996	-13.090000	1048.00	0.20	0.00	0.00	0.00	0.00	0.00	0.00	0.00	0.00	0.00	0.00	0.00	0.00	0.00	0.00	0.00	0.00	0.00	1.071289	-0.001465	1.640137	-23.590000	88.199997	-31.920000	0.00	0.00	0.00
2.10	1.00	2.25	0.75	1.75	1.00	2.00	3.25	1.00	17.25	15.50	17.00	10.00	5.25	13.50	2.75	3.75	-0.432129	0.100586	0.989258	-0.350000	207.479996	-15.330000	1036.00	0.20	0.01	0.50	0.00	0.00	0.50	0.00	0.00	0.00	0.00	0.00	0.00	0.00	0.00	0.00	0.00	0.00	0.00	1.361816	0.214355	1.961426	-33.320000	97.930000	-27.790001	11.00	0.00	0.00
2.11	1.25	2.00	0.75	1.75	1.00	2.00	3.25	1.00	17.25	15.50	16.75	10.00	5.00	13.75	3.00	3.75	-0.471191	0.090820	0.994629	-3.010000	214.339996	-17.780001	1037.00	0.21	0.01	0.50	0.75	0.00	0.25	0.00	0.00	0.00	0.00	0.00	0.00	0.00	0.00	0.00	0.00	0.00	0.00	0.929199	0.456543	1.520996	-28.559999	63.560001	-23.520000	15.00	0.00	0.00
2.12	1.25	2.25	0.50	1.25	1.00	2.00	3.25	0.75	17.00	15.25	16.75	9.50	4.50	14.00	3.00	4.00	-0.497070	0.098145	0.984375	-6.020000	224.210007	-20.370001	1015.00	0.21	0.01	1.50	1.50	0.50	1.25	0.25	0.00	0.00	0.00	0.00	0.00	0.00	0.00	0.00	0.00	0.00	0.00	0.141602	0.250977	0.171387	-10.010000	42.000000	-13.930000	51.00	-0.35	-0.06
2.13	0.75	2.25	0.50	1.75	1.00	1.75	3.25	0.50	16.75	15.25	16.50	9.25	4.00	14.25	2.75	4.25	-0.520508	0.097656	0.963379	-8.470000	234.850006	-23.379999	997.00	0.21	0.02	3.00	3.25	0.75	2.00	0.00	0.00	0.00	0.00	0.00	0.00	0.00	0.00	0.00	0.00	0.00	0.00	-0.090332	0.131836	-0.058594	-10.150000	101.220001	-7.700000	91.00	-0.37	-0.06
2.14	0.75	1.75	0.50	1.25	0.75	1.75	3.25	0.50	16.25	15.00	16.25	9.25	3.50	14.25	3.00	4.50	-0.580078	0.115234	0.948242	-11.760000	249.619995	-27.370001	972.00	0.22	0.02	6.25	5.50	1.25	3.00	0.00	0.00	0.00	0.00	0.00	0.00	0.00	0.00	0.00	0.00	0.00	0.00	-0.054688	0.302246	0.809082	2.310000	181.369995	-2.310000	162.00	-0.37	-0.05
2.15	1.00	2.00	0.50	1.25	0.75	1.50	3.50	0.50	15.75	14.75	16.00	8.75	3.00	14.25	3.00	4.25	-0.615723	0.121582	0.967285	-15.330000	267.399994	-33.040001	955.00	0.22	0.02	8.75	7.50	1.50	3.75	0.25	0.00	0.00	0.00	0.00	0.00	0.00	0.00	0.00	0.00	0.00	0.00	-0.154785	0.016602	1.835938	1.610000	192.149994	-1.470000	220.00	-0.37	-0.04
2.16	0.75	2.25	0.25	1.25	0.75	1.75	3.50	0.25	15.00	14.25	15.25	8.50	2.75	14.00	3.00	4.50	-0.650391	0.132812	0.982422	-19.460001	286.860016	-40.529999	922.00	0.22	0.02	10.50	9.25	2.75	5.75	0.50	0.50	0.00	0.00	0.00	0.00	0.00	0.25	0.00	0.00	0.00	0.00	-0.298828	-0.076172	2.025391	-1.260000	167.789993	-11.480000	301.00	-0.35	-0.05
2.17	0.50	1.50	0.25	0.50	0.50	1.50	3.50	0.25	13.75	13.75	14.75	8.50	2.75	14.00	2.75	4.25	-0.817871	0.131836	1.062012	-23.379999	309.399994	-48.020000	868.00	0.23	0.02	12.50	10.50	4.00	8.00	1.00	1.50	0.00	0.00	0.00	0.00	0.00	0.25	0.00	0.00	0.00	0.00	-0.223145	0.116699	1.729980	24.010000	150.919998	-17.290001	388.00	-0.34	-0.06
2.18	0.50	1.25	0.00	0.75	0.25	1.50	3.25	0.25	12.25	12.50	14.00	8.00	2.50	13.75	2.50	4.25	-0.948242	0.163086	1.170898	-25.410000	360.920013	-58.310001	807.00	0.23	0.02	13.00	11.50	5.00	9.00	1.25	3.00	0.00	0.00	0.00	0.00	0.00	0.25	0.00	0.00	0.00	0.00	-0.156250	0.236328	1.281250	43.189999	127.959999	-15.610000	444.00	-0.33	-0.07
2.19	0.25	0.75	0.00	0.75	0.25	1.00	3.25	0.00	10.50	11.00	12.50	7.50	2.00	13.25	2.25	4.00	-1.153809	0.153809	1.313477	-22.540001	381.429993	-60.340000	718.00	0.24	0.02	13.00	11.75	5.75	9.75	1.75	4.50	0.00	0.25	0.00	0.00	0.25	0.50	0.00	0.00	0.00	0.00	-0.136719	0.280762	1.121582	46.549999	114.099998	-8.120000	494.00	-0.31	-0.08
2.20	0.00	0.75	0.00	0.50	0.00	1.00	2.75	0.00	9.00	9.75	11.00	7.00	1.75	13.00	1.75	3.25	-1.586426	0.273926	1.575195	-20.020000	394.730011	-55.369999	635.00	0.24	0.02	12.50	12.00	6.25	10.50	1.75	6.50	0.00	0.75	0.00	0.00	0.25	0.50	0.00	0.00	0.00	0.00	-0.131348	0.273438	1.283203	5.110000	92.540001	-1.820000	534.00	-0.30	-0.09
2.21	0.00	0.00	0.00	0.00	0.00	0.75	2.25	0.00	7.75	8.25	9.25	6.00	1.25	12.00	1.50	2.75	-2.000000	0.508789	1.879395	-9.520000	402.920013	-43.750000	533.00	0.26	0.03	13.25	12.50	7.25	11.25	2.25	8.00	0.00	1.00	0.00	0.00	0.25	0.75	0.25	0.25	0.00	0.00	-0.181152	0.104004	1.131836	-10.500000	70.910004	5.320000	598.00	-0.29	-0.09
2.22	0.00	0.00	0.00	0.00	0.00	0.75	1.75	0.00	6.50	7.50	7.75	5.00	1.25	10.50	1.25	2.00	-1.895508	0.031738	2.428223	20.860001	402.570007	-33.180000	456.00	0.26	0.03	13.25	13.25	7.75	12.25	2.50	8.75	0.25	1.50	0.00	0.00	0.25	0.75	0.25	0.00	0.00	0.00	-0.139160	0.077637	1.082520	-20.650000	59.080002	4.270000	642.00	-0.29	-0.10
2.23	0.00	0.00	0.00	0.00	0.00	0.75	1.25	0.00	5.50	6.00	6.50	4.25	1.00	9.25	1.00	1.25	-1.387207	-0.247559	1.827637	25.549999	403.760010	-37.869999	379.00	0.26	0.03	13.75	13.75	8.25	13.00	3.50	9.75	0.25	2.00	0.00	0.00	0.75	1.00	0.50	0.25	0.00	0.00	-0.144531	0.116699	1.054199	-27.090000	45.080002	1.050000	707.00	-0.27	-0.10
2.24	0.00	0.00	0.00	0.00	0.00	0.75	0.75	0.00	4.75	5.25	5.50	3.75	1.25	8.50	0.75	1.25	-1.385742	0.139160	2.003418	19.460001	386.820007	-41.020000	331.00	0.26	0.02	14.75	14.50	8.75	13.75	4.25	10.50	0.25	2.50	0.00	0.25	0.50	1.00	0.75	0.25	0.00	0.00	-0.162109	0.135254	0.958496	-35.560001	38.009998	0.490000	764.00	-0.27	-0.10
2.25	0.00	0.00	0.00	0.00	0.00	0.50	0.50	0.00	3.75	4.50	4.75	3.25	0.75	7.50	0.75	1.00	-1.486816	0.253906	1.977539	35.209999	358.679993	-38.290001	277.00	0.27	0.02	15.75	15.00	9.25	14.25	5.25	11.50	0.25	3.00	0.00	0.00	0.50	0.75	0.75	0.00	0.00	0.00	-0.145508	0.100098	1.021973	-50.889999	36.889999	-0.350000	812.00	-0.27	-0.10
2.26	0.00	0.00	0.00	0.00	0.00	0.75	0.25	0.00	3.25	4.00	4.00	2.75	0.75	6.25	0.25	0.75	-1.069336	0.397949	2.200195	50.049999	327.600006	-41.790001	233.00	0.26	0.02	16.50	15.25	10.00	14.75	5.75	12.25	0.25	3.00	0.00	0.00	0.50	1.00	0.75	0.25	0.00	0.25	-0.154785	0.090332	1.065430	-73.709999	26.040001	-1.890000	856.00	-0.26	-0.10
2.27	0.00	0.00	0.00	0.00	0.00	0.50	0.25	0.00	2.25	3.25	3.00	2.00	0.75	4.00	0.25	0.25	-0.366699	0.234375	1.257324	66.919998	298.059998	-50.470001	170.00	0.26	0.01	17.25	15.75	10.50	15.00	6.50	12.75	0.50	3.50	0.00	0.00	0.50	1.00	0.75	0.75	0.00	0.00	-0.149414	0.094727	1.016113	-85.540001	8.750000	-2.100000	905.00	-0.26	-0.10
2.28	0.00	0.00	0.00	0.00	0.00	0.50	0.00	0.00	2.00	2.50	2.25	1.50	0.75	1.50	0.00	0.25	0.024902	0.282227	2.171387	102.059998	270.829987	-55.860001	118.00	0.23	-0.01	17.75	15.50	11.00	15.25	7.25	13.00	0.50	3.75	0.00	0.00	0.75	1.00	0.75	0.50	0.00	0.25	-0.176270	0.070312	1.004883	-89.669998	-2.520000	-2.240000	933.00	-0.26	-0.10
2.29	0.00	0.00	0.00	0.25	0.00	0.50	0.00	0.00	1.50	2.00	2.00	0.75	0.00	0.25	0.00	0.00	0.726562	0.059570	1.762207	153.020004	236.809998	-61.740002	80.00	0.20	0.00	18.50	15.50	11.25	15.00	8.00	13.25	0.50	4.00	0.00	0.25	0.75	1.00	1.25	0.75	0.00	0.50	-0.142578	0.038086	1.003906	-34.020000	-11.130000	-1.540000	966.00	-0.25	-0.10
2.30	0.00	0.00	0.00	0.50	0.00	0.50	0.00	0.00	1.25	2.00	1.75	0.75	0.00	0.25	0.00	0.00	1.679199	0.508789	1.148926	169.820007	199.430008	-84.279999	76.00	0.18	-0.01	18.50	15.25	12.00	15.00	8.50	13.25	0.75	3.75	0.00	0.25	0.75	1.00	1.25	1.25	0.00	0.25	-0.161621	0.049805	0.979004	-17.360001	-12.250000	-2.380000	980.00	-0.25	-0.09
2.31	0.00	0.00	0.00	0.25	0.00	0.25	0.00	0.00	1.25	1.50	1.50	0.75	0.00	0.00	0.00	0.00	1.467285	0.473145	3.669922	138.880005	71.959999	-110.949997	61.00	0.20	-0.00	19.25	15.00	12.25	14.75	9.25	13.50	0.75	4.25	0.00	0.50	0.75	1.00	1.25	1.25	0.00	0.50	-0.155273	0.044922	0.987793	-13.020000	-13.300000	-1.680000	1008.00	-0.24	-0.09
2.32	0.00	0.00	0.00	0.00	0.00	0.50	0.00	0.00	1.25	1.25	1.50	0.75	0.00	0.00	0.00	0.00	1.080078	0.233887	2.559570	144.830002	-80.010002	-108.220001	58.00	0.20	-0.01	18.75	14.50	12.50	14.50	9.75	13.25	0.75	4.50	0.50	0.50	1.00	1.00	1.25	1.75	0.00	0.75	-0.144043	0.043457	0.985840	-10.780000	-13.300000	-1.190000	1020.00	-0.23	-0.09
2.33	0.00	0.00	0.00	0.00	0.00	0.25	0.00	0.00	1.25	1.25	1.25	0.50	0.00	0.00	0.00	0.00	0.835449	0.143066	1.842773	132.089996	-173.389999	-97.720001	50.00	0.22	0.03	17.50	13.75	12.50	14.25	10.50	13.25	0.75	5.00	0.25	0.50	1.00	1.25	1.25	2.00	0.00	0.75	-0.148438	0.046875	0.984863	-10.430000	-13.020000	-0.700000	1014.00	-0.22	-0.09
2.34	0.00	0.00	0.00	0.25	0.00	0.25	0.00	0.00	0.75	1.25	1.50	0.25	0.00	0.00	0.00	0.00	0.660156	0.086426	1.355469	113.120003	-214.479996	-80.639999	47.00	0.00	0.00	17.00	12.75	12.25	13.75	11.00	13.00	1.00	5.00	0.50	0.75	1.25	1.25	1.75	2.50	0.00	0.75	-0.155273	0.045410	0.987793	-10.080000	-12.040000	-0.140000	1015.00	-0.21	-0.09
2.35	0.00	0.00	0.00	0.00	0.00	0.50	0.00	0.00	1.00	1.25	1.25	0.25	0.00	0.00	0.00	0.00	0.595703	0.079102	1.038574	92.400002	-233.240005	-59.709999	47.00	0.00	0.00	15.75	12.00	12.00	13.25	11.50	12.75	1.00	5.25	0.75	1.00	1.25	1.25	1.50	3.00	0.00	0.75	-0.143555	0.047852	0.989258	-9.870000	-11.410000	0.070000	1002.00	-0.20	-0.08
2.36	0.00	0.00	0.00	0.00	0.00	0.25	0.00	0.00	0.75	0.75	1.00	0.00	0.00	0.00	0.00	0.00	0.534180	0.085449	0.900391	69.580002	-244.440002	-37.799999	31.00	0.00	0.00	14.50	11.00	11.75	12.75	11.75	12.50	1.00	5.25	1.00	1.25	1.25	1.25	1.75	3.25	0.00	1.00	-0.144043	0.043945	0.988281	-9.660000	-10.360000	-0.140000	983.00	-0.19	-0.08
2.37	0.00	0.00	0.00	0.25	0.00	0.50	0.00	0.00	1.00	0.75	1.00	0.25	0.00	0.00	0.00	0.00	0.494629	0.098145	0.901855	50.119999	-257.809998	-14.280000	42.00	0.00	0.00	13.25	10.25	11.50	12.00	12.00	12.25	1.25	5.25	1.25	1.25	1.25	1.25	1.75	3.75	0.25	1.00	-0.145020	0.045898	0.989746	-9.380000	-9.730000	-0.490000	966.00	-0.18	-0.08
2.38	0.00	0.00	0.00	0.00	0.00	0.50	0.00	0.00	0.50	0.25	1.00	0.00	0.00	0.00	0.00	0.00	0.346191	0.094727	0.992676	34.860001	-275.450012	10.150000	25.00	0.00	0.00	12.00	9.50	11.00	11.50	12.25	11.75	1.50	5.25	1.50	1.25	1.50	1.50	2.00	4.50	0.25	1.00	-0.145020	0.043945	0.989258	-9.030000	-9.170000	-0.560000	953.00	-0.16	-0.08
2.39	0.00	0.00	0.00	0.25	0.00	0.25	0.00	0.00	0.75	0.50	1.00	0.00	0.00	0.00	0.00	0.00	0.256836	0.077148	1.024414	21.280001	-312.619995	52.639999	31.00	0.00	0.00	11.25	8.75	10.75	11.00	12.50	11.75	1.75	5.25	2.25	1.75	1.50	1.25	1.75	4.75	0.25	1.00	-0.144531	0.042969	0.987305	-8.610000	-8.750000	-0.420000	949.00	-0.15	-0.07
2.40	0.00	0.00	0.00	0.25	0.00	0.50	0.00	0.00	0.50	0.50	0.75	0.00	0.00	0.00	0.00	0.00	0.160156	0.067383	1.053223	26.880001	-327.600006	67.550003	28.00	0.00	0.00	9.75	8.25	10.50	10.50	12.25	11.25	2.00	5.25	2.50	1.75	1.50	1.25	2.00	5.50	0.50	1.25	-0.141113	0.044922	0.991699	-7.770000	-7.490000	-0.280000	932.00	-0.13	-0.07
2.41	0.00	0.00	0.00	0.00	0.00	0.50	0.00	0.00	0.25	0.25	0.50	0.00	0.00	0.00	0.00	0.00	0.064941	0.027832	1.134766	37.520000	-338.519989	76.860001	17.00	0.00	0.00	8.75	7.75	10.00	9.75	12.50	10.50	2.25	5.00	3.00	2.00	1.75	1.25	1.75	6.00	0.25	1.25	-0.141602	0.042480	0.990234	-7.280000	-6.510000	-0.070000	909.00	-0.12	-0.06
2.42	0.00	0.00	0.00	0.00	0.00	0.25	0.00	0.00	0.25	0.25	0.75	0.00	0.00	0.00	0.00	0.00	-0.027344	-0.043945	1.274902	49.490002	-346.149994	80.779999	16.00	0.00	0.00	8.25	7.00	9.75	9.50	12.25	10.25	2.50	5.00	3.50	2.00	1.75	1.25	2.00	6.25	0.50	1.50	-0.137207	0.041992	0.985352	-6.790000	-5.250000	0.070000	905.00	-0.11	-0.06
2.43	0.00	0.25	0.00	0.00	0.00	0.25	0.00	0.00	0.50	0.50	0.75	0.00	0.00	0.00	0.00	0.00	-0.141113	-0.131348	1.461914	59.010002	-352.100006	79.730003	25.00	0.00	0.00	7.25	6.50	9.25	9.00	12.00	9.75	2.75	5.00	4.25	2.25	2.00	1.50	2.00	6.75	0.50	1.25	-0.139160	0.042969	0.987793	-6.510000	-4.200000	0.070000	895.00	-0.09	-0.05
2.44	0.00	0.00	0.00	0.00	0.00	0.25	0.00	0.00	0.50	0.50	0.75	0.00	0.00	0.00	0.00	0.00	-0.247070	-0.253906	1.628906	62.930000	-358.260010	74.129997	22.00	0.00	0.00	6.50	6.00	8.75	8.50	11.75	9.50	2.75	4.75	5.00	2.50	2.00	1.50	2.00	7.00	0.75	1.50	-0.139160	0.037598	0.984375	-6.090000	-3.500000	-0.000000	881.00	-0.08	-0.05
2.45	0.00	0.00	0.00	0.00	0.00	0.50	0.00	0.00	0.50	0.25	0.75	0.00	0.00	0.00	0.00	0.00	-0.408691	-0.285156	1.820312	63.000000	-366.029999	65.099998	22.00	0.00	0.00	6.00	5.50	8.25	8.00	11.75	9.00	3.25	4.50	6.00	2.75	2.25	1.75	2.25	7.50	0.75	1.50	-0.143555	0.036621	0.986328	-5.600000	-3.150000	0.140000	886.00	-0.06	-0.04
2.46	0.00	0.00	0.00	0.00	0.00	0.25	0.00	0.00	0.75	0.25	0.75	0.00	0.00	0.00	0.00	0.00	-0.597168	-0.319824	1.861816	61.740002	-373.730011	53.970001	23.00	0.00	0.00	5.50	5.00	7.75	7.75	11.50	8.75	3.25	4.50	6.50	3.00	2.25	1.50	2.25	7.75	0.75	1.75	-0.144043	0.036621	0.987305	-5.110000	-2.940000	0.210000	872.00	-0.05	-0.03
2.47	0.00	0.00	0.00	0.00	0.00	0.50	0.00	0.00	0.00	0.00	0.75	0.00	0.00	0.00	0.00	0.00	-0.825195	-0.355957	1.820801	63.070000	-379.890015	42.490002	13.00	0.00	0.00	5.00	5.00	7.50	7.50	11.25	8.25	3.50	4.25	7.00	3.25	2.50	1.75	1.75	8.00	1.00	1.75	-0.143066	0.040039	0.995117	-4.830000	-2.870000	0.280000	868.00	-0.04	-0.03
2.48	0.00	0.00	0.00	0.00	0.00	0.25	0.00	0.00	0.25	0.25	0.50	0.00	0.00	0.00	0.00	0.00	-0.961914	-0.417969	1.801270	64.050003	-379.679993	32.480000	14.00	0.00	0.00	4.75	4.50	7.25	7.00	11.00	8.00	3.75	4.00	7.75	3.75	2.50	1.50	2.00	8.00	1.00	1.50	-0.147461	0.038086	0.981934	-4.690000	-2.590000	0.210000	860.00	-0.03	-0.02
2.49	0.00	0.00	0.00	0.00	0.00	0.50	0.00	0.00	0.25	0.25	0.00	0.00	0.00	0.00	0.00	0.00	-1.064941	-0.433105	1.727539	52.920002	-372.260010	26.809999	11.00	0.00	0.00	4.25	4.00	7.00	6.50	10.75	7.75	3.75	3.75	8.00	4.25	2.75	1.50	2.00	8.25	1.00	1.75	-0.141602	0.042969	0.985352	-4.550000	-2.660000	0.070000	848.00	-0.01	-0.01
2.50	0.00	0.00	0.00	0.00	0.00	0.25	0.00	0.00	0.50	0.25	0.25	0.00	0.00	0.00	0.00	0.00	-1.121582	-0.385742	1.715332	32.900002	-361.269989	25.480000	14.00	0.00	0.00	4.00	3.75	6.75	6.25	10.75	7.50	4.00	3.50	8.75	4.50	2.75	1.75	2.00	8.50	1.00	1.75	-0.143555	0.042969	0.983398	-4.480000	-2.590000	-0.070000	852.00	-0.00	-0.01
2.51	0.00	0.00	0.00	0.00	0.00	0.25	0.00	0.00	0.00	0.00	0.50	0.00	0.00	0.00	0.00	0.00	-1.147461	-0.301270	1.760254	10.360000	-348.600006	23.940001	8.00	0.00	0.00	3.50	3.25	6.25	6.00	10.50	7.00	4.25	3.50	9.00	5.00	3.00	2.00	1.75	8.50	1.00	1.75	-0.138184	0.033203	0.987793	-4.550000	-2.520000	-0.000000	841.00	0.01	-0.00
2.52	0.00	0.00	0.00	0.00	0.00	0.50	0.00	0.00	0.25	0.00	0.00	0.00	0.00	0.00	0.00	0.00	-1.154785	-0.132324	1.772461	-8.680000	-336.140015	16.100000	9.00	0.00	0.00	3.50	3.25	6.00	6.00	10.25	6.75	4.25	3.50	9.50	5.50	3.25	1.75	2.00	8.75	1.00	1.75	-0.142090	0.034180	0.988281	-4.340000	-2.450000	-0.210000	848.00	0.02	0.00
2.53	0.00	0.00	0.00	0.00	0.00	0.25	0.00	0.00	0.25	0.00	0.25	0.00	0.00	0.00	0.00	0.00	-1.128418	0.036621	1.766602	-14.700000	-325.850006	-0.140000	9.00	0.00	0.00	3.00	3.00	5.75	5.50	10.00	6.50	4.50	3.25	10.00	6.00	3.25	2.00	2.25	8.75	1.25	2.00	-0.143066	0.039551	0.990234	-4.130000	-1.890000	-0.350000	848.00	0.03	0.01
2.54	0.00	0.00	0.00	0.00	0.00	0.50	0.00	0.00	0.25	0.00	0.25	0.00	0.00	0.00	0.00	0.00	-1.145996	0.140137	1.732422	-5.460000	-316.610016	-21.559999	11.00	0.00	0.00	3.00	2.75	5.25	5.25	9.75	6.00	4.50	3.25	10.50	7.00	3.75	1.75	2.00	8.75	1.25	2.00	-0.140137	0.036133	0.987793	-3.920000	-1.680000	-0.070000	846.00	0.04	0.01
2.55	0.00	0.00	0.00	0.00	0.00	0.50	0.00	0.00	0.25	0.00	0.25	0.00	0.00	0.00	0.00	0.00	-1.169922	0.198242	1.630859	10.360000	-306.950012	-41.299999	11.00	0.00	0.00	2.50	2.50	5.25	5.00	9.50	5.75	4.75	3.00	11.00	7.50	4.00	2.00	2.25	9.00	1.00	2.25	-0.146484	0.034668	0.987793	-3.710000	-1.400000	-0.070000	851.00	0.05	0.02
2.56	0.00	0.00	0.00	0.00	0.00	0.00	0.00	0.00	0.00	0.00	0.25	0.00	0.00	0.00	0.00	0.00	-1.217773	0.262695	1.567871	23.240000	-294.209991	-56.070000	3.00	0.00	0.00	2.75	2.50	5.00	4.25	9.00	5.25	5.00	2.75	11.50	8.25	4.25	2.00	2.25	9.50	1.25	2.25	-0.139648	0.036621	0.984375	-3.360000	-1.260000	0.210000	855.00	0.06	0.03
2.57	0.00	0.00	0.00	0.00	0.00	0.25	0.00	0.00	0.00	0.00	0.25	0.00	0.00	0.00	0.00	0.00	-1.270508	0.349121	1.541992	35.070000	-278.600006	-65.519997	5.00	0.00	0.00	2.50	2.25	4.50	4.75	8.75	5.25	5.00	2.75	12.00	8.50	5.25	2.25	2.25	9.50	1.25	2.25	-0.136230	0.034180	0.984375	-3.080000	-1.470000	0.490000	870.00	0.07	0.02
2.58	0.00	0.00	0.00	0.00	0.00	0.25	0.00	0.00	0.00	0.00	0.25	0.00	0.00	0.00	0.00	0.00	-1.375488	0.509766	1.577637	74.269997	-248.850006	-65.730003	5.00	0.00	0.00	2.00	2.00	4.00	4.00	8.50	5.00	5.00	2.75	12.50	8.75	6.50	2.50	2.00	9.75	1.25	2.25	-0.143555	0.034668	0.985352	-2.660000	-1.540000	0.770000	868.00	0.09	0.03
2.59	0.00	0.00	0.00	0.25	0.00	0.00	0.00	0.00	0.00	0.00	0.00	0.00	0.00	0.00	0.00	0.00	-1.408691	0.509766	1.481445	74.269997	-248.850006	-65.730003	3.00	0.00	0.00	2.00	2.00	3.50	3.75	7.75	4.50	5.00	2.75	12.75	9.25	7.00	2.50	2.25	9.75	1.50	2.50	-0.145996	0.030762	0.981934	-2.450000	-0.980000	1.050000	866.00	0.10	0.03
2.60	0.00	0.00	0.00	0.00	0.00	0.25	0.00	0.00	0.00	0.00	0.00	0.00	0.00	0.00	0.00	0.00	-1.450684	0.466309	1.366211	108.080002	-221.339996	-21.770000	3.00	0.00	0.00	2.00	1.75	3.25	3.75	7.50	4.00	5.00	2.75	13.25	9.50	7.75	2.75	2.50	10.00	1.50	2.75	-0.146973	0.038086	0.988281	-2.450000	-0.490000	1.120000	878.00	0.11	0.03
2.61	0.00	0.00	0.00	0.00	0.00	0.25	0.00	0.00	0.00	0.00	0.00	0.00	0.00	0.00	0.00	0.00	-1.477539	0.371094	1.299316	108.849998	-203.630005	15.400000	3.00	0.00	0.00	2.00	1.50	3.00	3.50	6.75	3.50	5.00	2.50	13.75	10.00	8.25	3.00	2.75	10.25	1.50	2.75	-0.139648	0.029297	0.984375	-2.800000	-0.630000	1.470000	876.00	0.12	0.03
2.62	0.00	0.00	0.00	0.25	0.00	0.25	0.00	0.00	0.50	0.00	0.00	0.00	0.00	0.00	0.00	0.00	-1.514648	0.267090	1.255371	98.980003	-185.639999	56.770000	12.00	0.00	0.00	1.75	1.50	2.75	3.25	6.00	2.75	5.00	2.50	14.25	10.50	8.75	3.00	3.00	10.50	2.00	3.00	-0.148926	0.035156	0.985840	-2.940000	-0.210000	1.680000	880.00	0.13	0.03
2.63	0.00	0.00	0.00	0.00	0.00	0.25	0.00	0.00	0.00	0.00	0.00	0.00	0.00	0.00	0.00	0.00	-1.561035	0.186523	1.157227	84.559998	-168.419998	97.930000	3.00	0.00	0.00	1.50	1.25	2.50	3.25	5.50	2.25	5.00	2.50	14.75	11.00	9.25	3.25	3.25	11.00	1.75	3.00	-0.142578	0.035156	0.982422	-2.800000	0.630000	1.820000	884.00	0.15	0.03
2.64	0.00	0.00	0.00	0.00	0.00	0.00	0.00	0.00	0.00	0.00	0.00	0.00	0.00	0.00	0.00	0.00	-1.670410	0.119629	0.962891	70.279999	-152.039993	134.820007	0.00	0.00	0.00	1.25	1.25	2.00	2.50	4.75	1.75	5.25	2.25	15.25	11.25	9.75	3.50	3.25	11.00	2.00	3.25	-0.142578	0.032715	0.987305	-2.590000	1.540000	1.960000	875.00	0.16	0.04
2.65	0.00	0.00	0.00	0.00	0.00	0.25	0.00	0.00	0.50	0.00	0.00	0.00	0.00	0.00	0.00	0.00	-1.850586	0.023926	0.805664	58.380001	-134.399994	163.660004	9.00	0.00	0.00	1.50	1.00	2.00	3.00	3.75	1.50	5.00	2.25	15.75	11.75	10.50	4.25	3.75	11.25	2.00	3.25	-0.144043	0.028809	0.983887	-1.820000	3.360000	2.450000	898.00	0.17	0.03
2.66	0.00	0.00	0.00	0.00	0.00	0.25	0.00	0.00	0.25	0.00	0.25	0.00	0.00	0.00	0.00	0.00	-2.106934	-0.040527	0.598145	46.200001	-114.449997	180.949997	9.00	0.00	0.00	1.25	1.00	1.00	2.00	2.75	1.00	5.00	2.25	16.25	12.50	11.00	4.75	3.50	11.75	2.50	4.00	-0.145020	0.032227	0.990234	-1.050000	6.020000	3.010000	893.00	0.19	0.04
2.67	0.00	0.00	0.00	0.00	0.00	0.25	0.00	0.00	0.00	0.00	0.25	0.00	0.00	0.00	0.00	0.00	-2.471680	-0.090820	0.414551	37.590000	-90.580002	183.820007	5.00	0.00	0.00	1.25	1.00	1.00	2.50	2.25	1.00	5.00	2.00	16.75	13.00	11.50	5.00	4.00	12.25	2.50	3.75	-0.144043	0.043457	0.987305	0.210000	10.150000	2.380000	916.00	0.19	0.04
2.68	0.00	0.00	0.00	0.00	0.00	0.25	0.00	0.00	0.00	0.00	0.25	0.00	0.00	0.00	0.00	0.00	-2.802734	-0.156250	0.194336	40.250000	-61.250000	168.490005	5.00	0.00	0.00	1.00	1.25	1.00	2.25	1.50	0.75	5.00	1.50	17.25	13.25	12.25	6.25	4.00	12.50	2.75	4.75	-0.151855	0.052246	0.999023	5.950000	28.000000	1.890000	935.00	0.20	0.03
2.69	0.00	0.00	0.00	0.00	0.00	0.50	0.00	0.00	0.00	0.00	0.25	0.00	0.00	0.00	0.00	0.00	-2.791992	-0.292969	0.019531	54.389999	-23.379999	136.149994	8.00	0.00	0.00	1.00	1.00	1.25	2.00	1.50	0.75	4.75	1.50	17.75	13.75	12.75	7.00	4.25	13.25	2.75	5.00	-0.166992	0.048340	0.995605	10.150000	40.110001	1.960000	963.00	0.21	0.03
2.70	0.00	0.00	0.00	0.00	0.00	0.25	0.00	0.00	0.25	0.00	0.00	0.00	0.00	0.00	0.00	0.00	-2.573242	-0.481445	0.117188	66.500000	19.460001	96.320000	6.00	0.00	0.00	1.25	1.00	0.75	2.25	1.25	0.50	4.75	1.25	18.25	14.00	13.25	7.50	4.25	13.50	2.75	5.00	-0.180176	0.037109	1.014160	17.639999	56.000000	2.170000	976.00	0.21	0.03
2.71	0.00	0.00	0.00	0.25	0.00	0.25	0.00	0.00	0.50	0.00	0.25	0.00	0.00	0.00	0.00	0.00	-3.084473	-0.937012	1.273438	101.709999	122.989998	78.540001	15.00	0.00	0.00	1.25	1.00	1.00	1.50	1.00	0.25	4.50	1.25	18.50	14.75	13.75	8.25	4.25	13.75	3.00	5.25	-0.181152	0.039062	1.041992	39.410000	56.349998	7.490000	991.00	0.22	0.03
2.72	0.25	0.50	0.00	0.25	0.00	0.25	0.00	0.00	0.00	0.00	0.25	0.00	0.00	0.00	0.00	0.00	-2.819336	-0.869629	-0.380371	44.310001	198.380005	57.680000	15.00	0.00	0.00	1.25	1.00	0.50	2.25	1.00	0.25	4.00	1.00	19.00	15.00	14.50	8.50	4.25	14.25	2.75	5.25	-0.191406	0.037109	1.057129	33.389999	103.669998	3.500000	1004.00	0.22	0.03
2.73	0.25	1.00	0.25	0.25	0.00	0.00	0.00	0.00	0.25	0.00	0.25	0.00	0.00	0.00	0.00	0.00	-0.430664	-0.588867	0.575195	-37.520000	253.680008	27.299999	23.00	0.00	0.00	1.00	1.00	0.50	2.00	0.75	0.25	3.75	1.00	19.25	15.25	14.75	8.75	4.50	14.75	2.75	5.50	-0.210449	0.041504	1.086914	28.910000	143.570007	0.560000	1011.00	0.22	0.03
2.74	1.25	2.75	0.50	0.75	0.25	0.00	0.00	0.00	0.25	0.00	0.25	0.00	0.00	0.00	0.00	0.00	0.023926	0.116211	1.791992	-75.250000	252.279999	1.050000	61.00	-0.31	-0.06	1.25	1.00	0.75	2.00	0.50	0.25	3.25	0.75	19.50	15.50	15.25	9.00	4.25	15.00	3.00	5.50	-0.262207	0.057617	1.088867	21.210001	176.610001	-1.120000	1019.00	0.22	0.03
2.75	4.25	8.25	0.75	1.25	0.00	0.00	0.00	0.00	0.00	0.25	0.50	0.00	0.00	0.00	0.00	0.00	0.358398	0.384766	2.272461	-60.480000	198.449997	-2.240000	150.00	-0.36	-0.07	1.00	1.25	0.50	2.00	0.50	0.25	3.00	0.75	19.50	15.50	15.25	9.25	4.00	15.50	3.25	5.75	-0.283203	0.062988	1.145508	13.230000	206.360001	-4.200000	1020.00	0.23	0.03
2.76	11.00	15.00	1.50	2.75	0.00	0.00	0.00	0.00	0.00	0.25	0.50	0.25	0.00	0.00	0.00	0.00	0.042480	-0.057617	0.679688	-26.530001	170.660004	2.520000	309.00	-0.37	-0.06	1.00	1.00	0.75	2.00	0.50	0.00	2.75	0.50	19.50	15.75	15.50	9.00	4.25	15.75	3.00	6.00	-0.318848	0.084961	1.131836	3.430000	230.020004	-8.820000	1016.00	0.23	0.03
2.77	15.25	18.50	2.00	4.25	0.25	0.50	0.00	0.00	0.25	0.00	0.75	0.00	0.00	0.00	0.00	0.00	-0.621094	-0.625000	0.469727	-22.120001	270.339996	-11.130000	416.00	-0.37	-0.05	1.00	1.00	0.75	1.50	0.50	0.25	2.50	0.50	19.50	15.50	15.25	9.25	3.75	16.50	3.25	6.00	-0.363281	0.069336	1.134277	-2.590000	247.660004	-13.160000	1012.00	0.23	0.03
2.78	18.25	19.25	3.25	5.75	0.50	0.75	0.00	0.00	0.00	0.00	0.75	0.50	0.00	0.00	0.00	0.00	-0.521973	0.067383	2.386719	-68.320000	343.209991	-40.599998	492.00	-0.36	-0.05	1.00	0.75	0.50	2.00	0.25	0.00	2.25	0.25	19.25	15.50	15.25	9.00	3.50	16.75	3.50	6.25	-0.393555	0.047363	1.138184	-9.870000	267.679993	-15.330000	997.00	0.24	0.03
2.79	20.00	19.25	4.75	7.75	1.00	1.75	0.00	0.00	0.25	0.25	0.75	0.50	0.00	0.00	0.00	0.00	-0.673340	0.206055	3.326172	-50.259998	291.059998	-42.420002	571.00	-0.34	-0.05	0.75	1.00	0.50	1.50	0.25	0.00	2.25	0.25	19.00	15.25	15.00	8.75	3.00	17.25	3.75	6.25	-0.436523	0.075195	1.135742	-19.600000	287.070007	-17.780001	983.00	0.24	0.04
2.80	19.00	18.75	6.00	9.00	1.50	2.75	0.00	0.00	0.00	0.00	0.75	0.50	0.00	0.25	0.00	0.00	-0.309082	0.387695	1.499512	-17.500000	178.360001	-24.780001	597.00	-0.34	-0.05	0.75	1.00	0.25	1.00	0.25	0.00	2.25	0.25	18.50	15.00	14.75	8.50	2.75	17.50	3.25	6.25	-0.482422	0.115723	1.175781	-27.790001	308.489990	-23.030001	955.00	0.25	0.04
2.81	18.50	18.00	7.00	9.75	2.00	3.75	0.00	0.25	0.25	0.25	0.75	0.50	0.00	0.00	0.00	0.00	-0.253906	0.279297	1.262695	-15.120000	159.320007	-7.560000	628.00	-0.32	-0.06	0.75	1.00	0.25	0.75	0.25	0.00	2.25	0.25	17.75	14.75	14.25	8.25	2.25	18.00	3.50	6.25	-0.493164	0.128418	1.080566	-37.170002	333.970001	-30.660000	934.00	0.25	0.04
2.82	17.75	17.75	8.25	11.00	2.50	5.75	0.00	0.50	0.00	0.00	0.75	0.50	0.25	0.25	0.00	0.00	-0.218262	0.220703	1.164551	-32.830002	135.029999	1.960000	675.00	-0.31	-0.07	0.50	0.75	0.00	1.00	0.00	0.00	2.25	0.25	16.25	14.25	13.75	8.00	2.25	18.50	3.50	6.25	-0.641113	0.107422	1.185547	-47.040001	361.339996	-38.849998	898.00	0.26	0.04
2.83	18.75	17.25	9.00	12.00	3.25	6.50	0.25	0.75	0.50	0.00	1.00	0.50	0.75	0.00	0.00	0.00	-0.211426	0.037109	1.208008	-41.439999	116.199997	3.850000	735.00	-0.30	-0.07	0.50	1.00	0.00	0.75	0.00	0.00	2.25	0.00	14.50	13.25	12.50	7.75	2.00	18.75	3.00	6.00	-0.736328	0.119629	1.291992	-57.119999	390.320007	-46.759998	838.00	0.26	0.04
2.84	19.50	17.25	9.75	13.00	4.50	7.25	0.25	1.00	0.50	0.00	1.00	0.50	0.50	0.50	0.00	0.00	-0.231445	0.039551	1.147461	-47.180000	94.220001	-0.210000	790.00	-0.29	-0.07	0.50	0.25	0.00	0.75	0.00	0.00	2.25	0.00	12.00	11.50	11.25	6.75	2.00	19.00	2.50	5.50	-0.946289	0.188965	1.444336	-63.910000	418.739990	-55.720001	751.00	0.26	0.04
2.85	20.25	17.75	11.00	13.75	5.50	8.00	0.25	1.25	0.25	0.25	0.75	0.50	0.50	0.50	0.00	0.00	-0.230957	0.111328	1.019043	-45.500000	74.830002	-2.870000	844.00	-0.29	-0.07	0.00	0.00	0.00	0.25	0.00	0.00	2.00	0.00	9.25	10.00	9.50	5.75	1.50	18.75	2.00	5.00	-1.414551	0.191406	1.728027	-64.610001	439.600006	-62.720001	639.00	0.28	0.05
2.86	21.25	18.75	11.75	15.00	6.50	8.50	0.25	1.50	0.25	0.25	0.75	0.75	0.25	0.50	0.00	0.00	-0.229492	0.097656	1.067383	-47.459999	63.349998	-2.380000	907.00	-0.29	-0.07	0.00	0.00	0.00	0.00	0.00	0.00	1.75	0.00	7.50	8.50	8.25	5.00	1.25	17.25	1.50	4.25	-1.976562	0.435547	2.072754	-55.369999	455.630005	-62.930000	549.00	0.28	0.05
2.87	22.50	19.00	12.50	15.75	7.00	9.00	0.25	1.50	0.50	0.25	1.00	0.50	0.50	0.50	0.00	0.00	-0.230469	0.076660	1.084473	-50.119999	49.000000	-2.100000	955.00	-0.28	-0.07	0.00	0.00	0.00	0.00	0.00	0.00	1.25	0.00	6.25	7.25	6.75	3.75	0.75	14.75	1.00	3.50	-1.877441	0.129883	2.679199	-22.540001	464.869995	-58.660000	448.00	0.29	0.05
2.88	23.75	20.00	13.75	16.50	7.50	9.50	0.25	1.50	0.75	0.25	0.75	0.50	0.75	0.75	0.00	0.00	-0.226074	0.083984	1.022949	-50.049999	30.590000	-3.080000	1015.00	-0.28	-0.06	0.00	0.00	0.00	0.00	0.00	0.00	0.75	0.00	4.75	6.25	5.25	3.25	1.00	12.50	1.00	2.75	-1.401367	0.145996	2.662598	-6.300000	448.630005	-74.830002	368.00	0.29	0.05
2.89	24.50	20.50	14.50	17.25	8.00	10.00	0.50	1.50	0.50	0.25	0.75	0.75	0.75	1.00	0.00	0.00	-0.223145	0.072266	0.990723	-47.180000	17.639999	-3.290000	1060.00	-0.28	-0.06	0.00	0.00	0.00	0.00	0.00	0.00	0.25	0.00	3.75	5.00	4.25	3.00	1.00	10.00	0.75	2.75	-1.534668	0.228027	2.527344	0.420000	438.549988	-84.559998	298.00	0.29	0.03
2.90	26.25	21.50	15.00	17.75	8.50	10.25	0.50	1.75	0.75	0.25	0.75	0.75	0.75	0.75	0.00	0.00	-0.223145	0.064453	0.979492	-40.599998	7.630000	-3.150000	1112.00	-0.28	-0.06	0.00	0.00	0.00	0.00	0.00	0.00	0.25	0.00	2.25	4.00	3.50	2.75	0.75	8.25	0.50	2.00	-1.174805	0.448242	2.690430	7.630000	418.600006	-85.889999	233.00	0.29	0.02
2.91	27.00	22.50	16.00	18.25	8.75	11.00	0.50	1.75	0.50	0.50	0.75	0.50	0.75	0.75	0.00	0.00	-0.225586	0.057617	0.973145	-30.730000	3.220000	-2.730000	1153.00	-0.28	-0.06	0.00	0.00	0.00	0.00	0.00	0.00	0.00	0.00	1.50	3.75	3.00	2.50	0.75	5.75	0.25	1.00	-0.144531	0.512207	2.950684	15.400000	375.480011	-94.570000	180.00	0.29	0.00
2.92	28.00	22.75	16.50	18.75	9.00	11.00	0.50	1.75	0.75	0.50	0.75	0.75	0.75	1.00	0.00	0.00	-0.211914	0.060547	0.963867	-21.210001	2.310000	-2.030000	1187.00	-0.28	-0.06	0.00	0.00	0.00	0.00	0.00	0.00	0.00	0.00	1.25	2.75	2.25	1.50	0.50	2.50	0.00	0.75	0.673828	0.365234	3.245117	5.950000	310.029999	-109.059998	114.00	0.27	-0.01
2.93	28.50	23.50	16.50	19.25	9.25	11.75	0.50	1.75	1.00	0.50	0.75	0.75	0.50	0.75	0.00	0.00	-0.217285	0.062500	0.971680	-12.880000	2.800000	-1.400000	1215.00	-0.28	-0.06	0.00	0.00	0.00	0.00	0.00	0.00	0.00	0.00	0.75	2.00	1.75	0.75	0.00	1.00	0.00	0.00	1.239258	0.056641	3.145020	-7.700000	244.720001	-114.870003	65.00	0.26	0.02
2.94	28.50	23.75	16.50	19.75	9.25	12.00	0.50	2.00	0.75	0.25	1.00	0.50	0.75	0.75	0.00	0.00	-0.213867	0.042969	0.954102	-5.600000	3.710000	-1.120000	1226.00	-0.28	-0.06	0.00	0.00	0.00	0.00	0.00	0.00	0.00	0.00	0.75	2.00	1.75	1.00	0.00	0.75	0.00	0.00	1.828125	0.996094	2.424316	-53.760002	162.470001	-92.889999	66.00	0.25	-0.00
2.95	27.75	23.75	16.25	19.50	9.25	12.50	0.50	2.25	0.75	0.25	0.75	0.75	0.50	0.75	0.00	0.00	-0.214355	0.054688	0.958984	-1.260000	3.990000	-0.700000	1219.00	-0.28	-0.07	0.00	0.00	0.00	0.00	0.00	0.00	0.00	0.00	0.25	2.00	1.25	0.75	0.00	0.25	0.00	0.00	1.753906	0.812012	2.991699	-46.480000	31.920000	-76.930000	47.00	0.00	0.00
2.96	27.50	23.50	16.25	19.25	9.25	12.75	0.50	2.00	1.00	0.50	1.00	0.75	0.75	0.75	0.00	0.00	-0.219727	0.054688	0.966309	3.360000	4.830000	-0.350000	1221.00	-0.27	-0.07	0.00	0.00	0.00	0.00	0.00	0.00	0.00	0.00	0.25	1.50	1.00	0.75	0.00	0.25	0.00	0.00	1.181152	0.758789	2.505859	9.520000	-116.199997	-57.540001	39.00	0.00	0.00
2.97	26.75	23.50	15.50	19.25	9.00	13.25	0.50	2.00	0.75	0.25	0.75	0.75	0.75	0.25	0.00	0.00	-0.221680	0.060547	0.971191	10.780000	6.440000	-0.070000	1195.00	-0.28	-0.07	0.00	0.00	0.00	0.00	0.00	0.00	0.00	0.00	0.00	1.50	1.00	0.25	0.00	0.25	0.00	0.00	0.894531	0.623047	1.654297	40.110001	-192.360001	-42.000000	31.00	0.00	0.00
2.98	26.00	23.25	15.00	19.00	8.75	13.25	0.50	2.25	0.75	0.25	0.75	0.50	0.75	0.25	0.00	0.00	-0.214844	0.067383	0.954590	15.820000	7.280000	0.280000	1175.00	-0.28	-0.07	0.00	0.00	0.00	0.00	0.00	0.00	0.00	0.00	0.25	1.25	1.00	0.00	0.00	0.00	0.00	0.00	0.718262	0.494629	1.213867	66.290001	-217.839996	-24.219999	27.00	0.00	0.00
2.99	25.00	22.75	14.75	18.75	8.75	13.75	0.50	2.50	0.25	0.25	1.00	0.50	0.75	0.25	0.00	0.00	-0.196289	0.073242	0.936035	12.740000	5.810000	0.350000	1160.00	-0.28	-0.08	0.00	0.00	0.00	0.00	0.00	0.00	0.00	0.00	0.00	1.00	1.00	0.25	0.00	0.00	0.00	0.00	0.656738	0.309570	1.100098	79.519997	-232.680008	-7.000000	24.00	0.00	0.00
3.00	24.00	22.00	14.25	18.25	8.75	14.00	0.50	2.50	0.50	0.50	0.75	0.75	0.75	0.25	0.00	0.00	-0.192383	0.080078	0.924805	1.890000	4.200000	-0.350000	1140.00	-0.27	-0.08	0.00	0.00	0.00	0.00	0.00	0.00	0.00	0.00	0.00	1.00	1.00	0.25	0.00	0.00	0.00	0.00	0.591797	0.183105	1.037109	75.809998	-251.440002	11.410000	24.00	0.00	0.00
3.01	23.25	21.00	13.75	18.00	9.00	13.75	0.50	2.75	0.75	0.50	1.00	0.75	1.00	0.25	0.00	0.00	-0.187500	0.064453	0.930176	-29.260000	-1.820000	-2.800000	1127.00	-0.27	-0.08	0.00	0.00	0.00	0.00	0.00	0.00	0.00	0.00	0.00	0.50	0.50	0.25	0.00	0.00	0.00	0.00	0.551758	0.090332	0.982910	62.090000	-271.250000	33.110001	13.00	0.00	0.00
3.02	21.75	20.25	13.50	17.50	9.50	14.00	0.50	3.25	0.75	0.50	1.00	0.75	1.00	0.25	0.00	0.00	-0.203125	0.047852	0.962891	-41.439999	-7.420000	-4.550000	1112.00	-0.26	-0.08	0.00	0.00	0.00	0.00	0.00	0.00	0.00	0.00	0.00	0.25	0.75	0.25	0.00	0.00	0.00	0.00	0.466797	0.053223	0.946289	46.689999	-287.559998	56.700001	13.00	0.00	0.00
3.03	21.25	19.25	13.50	16.75	9.75	14.25	0.50	3.50	0.75	0.75	1.25	0.75	1.00	0.25	0.00	0.00	-0.197266	0.028320	0.956543	-35.630001	-13.650000	-5.670000	1104.00	-0.25	-0.08	0.00	0.00	0.00	0.00	0.00	0.00	0.00	0.00	0.00	0.25	0.25	0.00	0.00	0.00	0.00	0.00	0.369141	-0.000488	0.966797	32.270000	-301.070007	79.099998	5.00	0.00	0.00
3.04	20.25	18.25	13.50	16.00	10.50	14.00	0.75	3.75	1.00	0.75	1.25	1.00	0.75	0.25	0.00	0.00	-0.190918	0.055176	0.970703	-22.330000	-19.040001	-6.720000	1093.00	-0.25	-0.08	0.00	0.00	0.00	0.00	0.00	0.00	0.00	0.00	0.00	0.50	0.50	0.25	0.00	0.00	0.00	0.00	0.253418	-0.019531	0.988770	21.139999	-314.019989	97.790001	13.00	0.00	0.00
3.05	19.00	16.50	13.00	15.50	11.25	14.00	0.75	4.00	1.00	1.00	1.25	0.75	1.25	0.50	0.00	0.25	-0.199707	0.046387	0.962891	-13.300000	-16.240000	-6.790000	1073.00	-0.24	-0.08	0.00	0.00	0.00	0.00	0.00	0.00	0.00	0.00	0.00	0.25	0.25	0.00	0.00	0.00	0.00	0.00	0.140137	-0.014648	1.041016	14.560000	-325.149994	110.320000	5.00	0.00	0.00
3.06	18.00	15.75	13.00	14.50	11.75	13.50	0.75	4.00	1.75	1.00	1.25	1.00	1.25	0.75	0.00	0.00	-0.199707	0.042969	0.954102	-9.660000	-11.340000	-6.440000	1058.00	-0.23	-0.08	0.00	0.00	0.00	0.00	0.00	0.00	0.00	0.00	0.00	0.25	0.00	0.00	0.00	0.00	0.00	0.00	0.051270	-0.016602	1.169434	15.330000	-335.160004	116.970001	3.00	0.00	0.00
3.07	16.75	13.75	13.50	13.50	12.25	13.25	1.00	4.25	1.75	1.50	1.75	1.00	1.25	1.00	0.00	0.25	-0.175293	0.043945	0.950684	-9.310000	-9.030000	-5.950000	1045.00	-0.21	-0.07	0.00	0.00	0.00	0.00	0.00	0.00	0.00	0.00	0.00	0.00	0.00	0.00	0.00	0.00	0.00	0.00	-0.033203	-0.023438	1.301758	22.400000	-346.149994	118.440002	0.00	0.00	0.00
3.08	15.75	12.25	12.75	12.25	13.00	13.00	1.00	4.25	2.00	1.50	1.75	1.25	1.50	1.25	0.00	0.25	-0.187500	0.041992	0.960449	-9.380000	-8.400000	-5.670000	1015.00	-0.20	-0.07	0.00	0.00	0.00	0.00	0.00	0.00	0.00	0.00	0.00	0.00	0.00	0.00	0.00	0.00	0.00	0.00	-0.259766	-0.089844	1.496094	37.099998	-369.110016	110.389999	0.00	0.00	0.00
3.09	14.00	10.75	12.75	11.25	13.50	12.50	1.25	4.25	2.50	2.00	1.75	1.25	1.50	1.25	0.25	0.50	-0.179688	0.044434	0.952148	-9.590000	-7.280000	-5.530000	991.00	-0.18	-0.07	0.00	0.00	0.00	0.00	0.00	0.00	0.00	0.00	0.00	0.25	0.00	0.00	0.00	0.00	0.00	0.00	-0.410645	-0.154785	1.544922	41.509998	-377.160004	104.370003	3.00	0.00	0.00
3.10	12.00	9.50	12.25	10.25	13.75	12.00	1.25	4.25	3.00	2.50	2.25	1.25	1.50	1.50	0.25	0.25	-0.180176	0.041504	0.961426	-9.590000	-5.950000	-5.530000	958.00	-0.17	-0.06	0.00	0.00	0.00	0.00	0.00	0.00	0.00	0.00	0.00	0.00	0.00	0.00	0.00	0.00	0.00	0.00	-0.546875	-0.228027	1.590332	42.910000	-381.220001	97.860001	0.00	0.00	0.00
3.11	10.50	8.25	11.75	9.25	14.25	11.25	1.75	4.25	3.75	2.50	2.25	1.50	1.75	2.00	0.25	0.50	-0.188477	0.040527	0.962891	-9.240000	-4.970000	-5.460000	939.00	-0.15	-0.06	0.00	0.00	0.00	0.00	0.00	0.00	0.00	0.00	0.00	0.00	0.00	0.00	0.00	0.00	0.00	0.00	-0.633301	-0.300293	1.659668	39.970001	-381.500000	90.019997	0.00	0.00	0.00
3.12	9.00	7.50	11.50	8.50	14.25	10.50	2.00	4.25	4.50	3.00	2.50	1.50	1.50	2.50	0.50	0.50	-0.177246	0.046387	0.958984	-8.330000	-4.060000	-5.390000	924.00	-0.13	-0.05	0.00	0.00	0.00	0.00	0.00	0.00	0.00	0.00	0.00	0.00	0.00	0.00	0.00	0.00	0.00	0.00	-0.711914	-0.347168	1.770020	33.389999	-380.519989	80.639999	0.00	0.00	0.00
3.13	8.00	7.00	10.50	8.00	14.50	9.75	2.50	4.00	5.25	3.50	2.75	1.50	1.75	3.25	0.25	0.75	-0.179199	0.031738	0.964844	-7.490000	-2.590000	-5.390000	915.00	-0.11	-0.04	0.00	0.00	0.00	0.00	0.00	0.00	0.00	0.00	0.00	0.00	0.00	0.00	0.00	0.00	0.00	0.00	-0.769043	-0.359375	1.862305	24.360001	-380.589996	69.019997	0.00	0.00	0.00
3.14	7.25	6.25	9.75	7.25	14.25	9.50	2.75	4.00	6.75	3.75	3.00	1.75	1.75	3.25	0.75	0.75	-0.172363	0.039551	0.958984	-6.650000	-1.190000	-5.530000	915.00	-0.08	-0.03	0.00	0.00	0.00	0.50	0.00	0.00	0.00	0.00	0.00	0.00	0.00	0.00	0.00	0.00	0.00	0.00	-0.828613	-0.331543	1.946289	14.280000	-381.220001	56.420002	5.00	0.00	0.00
3.15	6.50	5.75	9.25	6.75	14.00	8.75	3.00	4.00	8.25	4.25	3.25	1.75	2.25	4.00	0.75	0.75	-0.177734	0.039062	0.968262	-5.950000	-0.000000	-5.600000	923.00	-0.06	-0.02	0.00	0.00	0.00	0.00	0.00	0.00	0.00	0.00	0.00	0.00	0.00	0.00	0.00	0.00	0.00	0.00	-0.880371	-0.268555	2.027344	5.950000	-381.640015	44.099998	0.00	0.00	0.00
3.16	5.75	5.25	8.75	6.25	13.75	8.25	3.50	3.75	8.75	5.50	3.75	1.75	2.00	4.50	0.75	0.75	-0.172852	0.033203	0.958984	-5.110000	1.190000	-5.810000	922.00	-0.04	-0.01	0.00	0.00	0.00	0.00	0.00	0.00	0.00	0.00	0.00	0.00	0.00	0.00	0.00	0.00	0.00	0.00	-0.923340	-0.168945	2.135742	1.050000	-381.920013	31.850000	0.00	0.00	0.00
3.17	5.00	5.00	8.00	5.50	13.25	7.75	3.75	3.75	9.75	6.50	4.00	2.00	2.25	5.25	1.00	1.00	-0.176758	0.021973	0.966309	-4.340000	2.520000	-6.160000	929.00	-0.02	-0.01	0.00	0.00	0.00	0.00	0.00	0.00	0.00	0.00	0.00	0.00	0.00	0.00	0.00	0.00	0.00	0.00	-0.969727	-0.107910	2.227051	2.310000	-384.019989	19.670000	0.00	0.00	0.00
3.18	4.25	4.25	7.25	5.00	13.00	7.25	4.00	3.50	10.50	7.75	5.00	2.25	2.25	5.50	1.00	1.00	-0.176758	0.035156	0.953613	-3.500000	3.640000	-6.370000	931.00	0.00	0.00	0.00	0.00	0.00	0.25	0.00	0.00	0.00	0.00	0.00	0.00	0.00	0.00	0.00	0.00	0.00	0.00	-1.039062	-0.049805	2.267090	7.070000	-387.380005	7.140000	3.00	0.00	0.00
3.19	3.75	4.00	6.75	5.00	12.00	6.75	4.25	3.25	11.25	8.25	6.00	2.50	2.25	6.00	1.00	1.00	-0.175293	0.031738	0.961914	-2.940000	4.970000	-6.370000	934.00	0.02	0.01	0.00	0.00	0.00	0.25	0.00	0.00	0.00	0.00	0.00	0.00	0.00	0.00	0.00	0.00	0.00	0.00	-1.128418	0.010254	2.208984	14.070000	-388.920013	-5.950000	3.00	0.00	0.00
3.20	3.25	3.50	6.00	4.00	11.25	6.00	4.50	3.25	12.00	8.75	6.50	2.75	2.75	7.25	1.00	1.25	-0.167969	0.036621	0.979492	-2.450000	6.580000	-6.580000	931.00	0.04	0.01	0.00	0.00	0.00	0.00	0.00	0.00	0.00	0.00	0.00	0.00	0.00	0.00	0.00	0.00	0.00	0.00	-1.254883	0.051758	2.125977	24.500000	-385.980011	-18.900000	0.00	0.00	0.00
3.21	3.00	3.50	5.50	3.75	10.00	5.50	4.75	3.00	12.75	9.50	7.50	3.00	3.00	8.00	1.25	1.25	-0.174805	0.027832	0.962402	-1.750000	8.260000	-6.790000	943.00	0.06	0.02	0.00	0.00	0.00	0.00	0.00	0.00	0.00	0.00	0.00	0.00	0.00	0.00	0.00	0.00	0.00	0.00	-1.414062	0.054199	2.054688	38.920002	-378.769989	-31.500000	0.00	0.00	0.00
3.22	2.75	3.00	5.00	3.50	8.75	5.00	4.75	3.00	13.50	10.00	8.00	3.25	3.00	8.25	1.50	1.50	-0.177734	0.031250	0.965820	-0.700000	9.660000	-7.000000	937.00	0.08	0.02	0.00	0.00	0.00	0.25	0.00	0.00	0.00	0.00	0.00	0.00	0.00	0.00	0.00	0.00	0.00	0.00	-1.594238	0.026855	2.020508	53.900002	-367.079987	-43.750000	3.00	0.00	0.00
3.23	2.25	2.75	4.25	3.00	7.75	4.00	4.75	2.75	14.50	10.50	8.75	3.75	3.25	9.00	1.50	1.50	-0.176270	0.034668	0.964844	1.470000	12.320000	-8.750000	930.00	0.10	0.02	0.00	0.00	0.00	0.00	0.00	0.00	0.00	0.00	0.00	0.00	0.00	0.00	0.00	0.00	0.00	0.00	-1.804688	0.002441	2.006836	66.849998	-350.769989	-53.900002	0.00	0.00	0.00
3.24	2.00	2.50	3.50	2.75	6.00	3.50	4.75	2.25	15.00	11.25	9.25	4.00	3.25	9.50	1.75	1.75	-0.181641	0.019531	0.971191	2.730000	13.580000	-10.010000	912.00	0.12	0.03	0.00	0.00	0.00	0.00	0.00	0.00	0.00	0.00	0.00	0.00	0.00	0.00	0.00	0.00	0.00	0.00	-1.996582	-0.011719	1.886230	76.510002	-329.420013	-57.959999	0.00	0.00	0.00
3.25	1.75	2.00	3.00	2.75	5.00	2.75	4.75	2.25	16.00	11.75	10.00	4.25	3.25	10.25	1.75	1.75	-0.181152	0.029785	0.968262	4.970000	17.080000	-11.130000	916.00	0.14	0.04	0.00	0.00	0.00	0.00	0.00	0.00	0.00	0.00	0.00	0.00	0.00	0.00	0.00	0.00	0.00	0.00	-2.156738	-0.040527	1.628906	83.160004	-303.239990	-52.639999	0.00	0.00	0.00
3.26	1.50	2.25	2.25	2.25	3.50	2.25	4.50	2.00	16.50	12.50	10.75	5.00	3.50	10.75	2.00	2.00	-0.186523	0.038086	0.961426	8.190000	25.549999	-10.290000	913.00	0.16	0.03	0.00	0.00	0.00	0.00	0.00	0.00	0.00	0.00	0.00	0.00	0.00	0.00	0.00	0.00	0.00	0.00	-2.427734	-0.176758	1.130859	80.849998	-239.190002	-10.920000	0.00	0.00	0.00
3.27	1.75	1.75	2.00	2.25	3.00	2.00	4.50	1.75	17.00	13.00	11.50	5.25	3.50	11.25	2.00	2.25	-0.209473	0.044434	0.963379	16.730000	49.000000	-8.750000	924.00	0.17	0.04	0.00	0.00	0.00	0.50	0.00	0.00	0.00	0.00	0.00	0.00	0.00	0.00	0.00	0.00	0.00	0.00	-2.427734	-0.176758	1.130859	80.849998	-239.190002	-10.920000	5.00	0.00	0.00
3.28	1.50	1.75	2.00	2.25	2.25	2.00	4.00	1.50	17.75	13.50	12.25	5.75	3.50	11.75	2.00	2.25	-0.236816	0.072266	0.969238	26.530001	78.750000	-8.610000	934.00	0.18	0.04	0.00	0.00	0.00	0.25	0.00	0.00	0.00	0.00	0.00	0.00	0.00	0.00	0.00	0.00	0.00	0.00	-3.005859	-0.290039	0.663086	44.520000	-171.710007	55.860001	3.00	0.00	0.00
3.29	1.25	1.50	1.75	2.00	2.00	1.50	3.75	1.25	18.25	13.75	12.75	6.25	3.50	12.50	2.25	2.25	-0.234863	0.043457	1.015625	32.970001	115.500000	-8.680000	936.00	0.19	0.04	0.00	0.00	0.00	0.00	0.00	0.00	0.00	0.00	0.00	0.00	0.00	0.00	0.00	0.00	0.00	0.00	-3.506348	-0.331543	0.379395	23.520000	-133.279999	87.709999	0.00	0.00	0.00
3.30	1.50	1.50	1.75	1.50	1.75	1.75	3.50	1.25	18.50	14.25	13.25	6.50	3.50	13.00	2.25	2.50	-0.239258	0.021973	1.008789	27.790001	152.460007	-8.190000	952.00	0.19	0.04	0.00	0.00	0.00	0.00	0.00	0.00	0.00	0.00	0.00	0.00	0.00	0.00	0.00	0.00	0.00	0.00	-3.766113	-0.351562	0.030762	6.160000	-83.650002	106.190002	0.00	0.00	0.00
3.31	1.50	1.25	1.25	1.75	1.50	1.75	3.25	1.00	19.00	14.50	14.00	7.00	3.25	13.75	2.25	2.50	-0.286621	0.048828	1.037109	15.330000	182.699997	-7.560000	963.00	0.20	0.04	0.00	0.00	0.00	0.25	0.00	0.00	0.00	0.00	0.00	0.00	0.00	0.00	0.00	0.00	0.00	0.00	-3.567383	-0.404785	-0.215332	-7.280000	-23.309999	107.660004	3.00	0.00	0.00
3.32	1.25	1.50	1.00	2.00	1.25	1.50	3.00	1.00	19.25	14.75	14.25	7.25	3.00	14.25	2.25	3.00	-0.325684	0.057129	1.070312	7.840000	203.770004	-8.050000	969.00	0.21	0.04	0.00	0.00	0.00	0.00	0.00	0.00	0.00	0.00	0.00	0.00	0.00	0.00	0.00	0.00	0.00	0.00	-3.114746	-0.419922	-0.010742	-23.100000	37.310001	94.500000	0.00	0.00	0.00
3.33	1.50	1.75	1.00	1.75	1.25	1.50	2.50	0.75	19.50	15.00	14.50	7.25	2.75	15.00	2.25	3.00	-0.346680	0.054199	1.103516	0.350000	223.300003	-10.080000	972.00	0.21	0.04	0.00	0.00	0.00	0.00	0.00	0.00	0.00	0.00	0.00	0.00	0.00	0.00	0.00	0.00	0.00	0.00	-2.559570	-0.302246	0.380859	-38.709999	84.629997	74.129997	0.00	0.00	0.00
3.34	1.25	1.50	0.75	1.50	1.00	1.50	2.25	0.50	19.50	15.00	14.50	7.25	2.50	15.50	2.50	3.50	-0.393555	0.062012	1.120605	-7.490000	242.970001	-12.460000	959.00	0.22	0.04	0.00	0.00	0.00	0.00	0.00	0.00	0.00	0.00	0.00	0.00	0.00	0.00	0.00	0.00	0.00	0.00	-5.057617	1.082520	0.110840	-55.439999	104.860001	46.480000	0.00	0.00	0.00
3.35	1.00	1.50	0.75	1.75	1.00	1.50	2.25	0.50	19.50	14.75	14.75	7.25	2.50	15.75	2.50	3.75	-0.455078	0.050781	1.123047	-11.900000	259.980011	-15.050000	963.00	0.22	0.04	0.25	0.25	0.00	0.50	0.00	0.00	0.00	0.00	0.00	0.00	0.00	0.00	0.00	0.00	0.00	0.00	0.047852	-0.373047	0.511719	64.400002	241.570007	15.330000	10.00	0.00	0.00
3.36	1.00	1.50	0.75	1.00	0.75	1.00	2.00	0.25	19.25	14.75	14.75	7.25	2.00	16.25	2.75	4.00	-0.479492	0.060547	1.191406	-15.050000	281.820007	-18.410000	939.00	0.23	0.05	1.25	1.00	0.25	1.00	0.00	0.00	0.00	0.00	0.00	0.00	0.00	0.00	0.00	0.00	0.00	0.00	0.002441	-0.003906	1.164062	30.520000	223.020004	-21.700001	36.00	0.00	0.00
3.37	1.25	1.50	0.75	1.50	0.75	1.00	2.00	0.25	19.00	14.50	14.50	7.00	2.00	16.25	2.75	4.00	-0.515625	0.047852	1.122070	-17.570000	306.600006	-23.170000	936.00	0.23	0.05	6.00	7.00	0.75	1.75	0.00	0.00	0.00	0.00	0.00	0.50	0.25	0.25	0.00	0.00	0.00	0.00	0.881348	0.400391	1.693359	-42.700001	175.350006	-43.189999	165.00	-0.35	-0.05
3.38	1.00	1.50	0.75	1.25	0.75	1.25	2.25	0.25	18.25	14.25	14.25	6.75	1.75	16.25	2.75	4.00	-0.524414	0.054688	1.205566	-21.629999	336.980011	-29.049999	918.00	0.23	0.05	13.75	13.00	1.50	3.00	0.00	0.00	0.00	0.00	0.00	0.25	0.50	0.25	0.00	0.00	0.00	0.00	0.210938	0.760742	0.028320	-11.480000	179.550003	-34.439999	322.00	-0.37	-0.04
3.39	0.75	1.50	0.50	1.25	0.50	1.00	2.50	0.00	17.50	14.00	14.00	6.50	1.50	16.00	2.50	4.00	-0.604980	0.118652	1.142578	-29.540001	374.640015	-38.639999	882.00	0.23	0.05	17.75	15.25	2.00	4.50	0.00	0.00	0.00	0.00	0.00	0.00	0.25	0.25	0.00	0.00	0.00	0.00	-0.844238	0.184082	0.702637	-6.300000	331.869995	-10.290000	401.00	-0.38	-0.03
3.40	0.75	1.00	0.25	1.00	0.50	1.00	2.50	0.00	16.25	13.50	13.75	6.25	1.25	15.75	2.25	3.50	-0.702637	0.173828	1.176758	-37.869999	419.929993	-52.709999	836.00	0.24	0.05	19.75	16.50	3.00	6.50	0.25	0.00	0.00	0.00	0.00	0.25	0.50	0.50	0.00	0.00	0.00	0.00	-0.541016	0.624512	3.276367	-29.820000	388.779999	1.540000	477.00	-0.36	-0.04
3.41	0.50	0.50	0.00	0.50	0.25	1.00	2.50	0.00	14.25	12.50	12.50	6.50	1.25	15.25	2.00	3.25	-1.089844	0.168945	1.516602	-54.529999	505.750000	-76.300003	762.00	0.25	0.05	21.25	17.25	6.00	9.00	0.50	1.25	0.00	0.00	0.00	0.25	0.75	0.50	0.00	0.00	0.00	0.00	-0.615234	-0.240723	3.319824	-7.560000	313.250000	15.120000	579.00	-0.35	-0.04
3.42	0.00	0.50	0.00	0.25	0.00	0.75	2.50	0.00	11.50	10.75	11.00	5.75	1.00	15.00	1.50	2.50	-1.089844	0.168945	1.516602	-54.529999	505.750000	-76.300003	657.00	0.26	0.05	20.75	16.75	7.25	10.25	1.25	2.75	0.00	0.00	0.00	0.25	1.00	0.75	0.00	0.00	0.00	0.00	-0.573242	-0.255371	2.826172	7.910000	262.079987	-3.010000	627.00	-0.33	-0.05
3.43	0.00	0.25	0.00	0.25	0.00	0.75	2.00	0.00	9.00	8.75	9.25	5.00	0.75	13.75	1.00	1.50	-2.421875	0.236328	2.635742	-55.930000	536.549988	-79.870003	544.00	0.26	0.05	20.00	16.50	8.00	11.50	1.75	5.00	0.00	0.25	0.00	0.25	0.75	0.75	0.00	0.00	0.00	0.00	-0.199707	0.244141	1.758301	40.599998	207.690002	-14.630000	670.00	-0.32	-0.06
3.44	0.00	0.00	0.00	0.00	0.00	0.50	1.50	0.00	7.50	7.50	7.50	4.00	0.50	12.00	0.50	1.00	-2.672363	0.310547	2.758789	-34.090000	554.260010	-61.670002	442.00	0.27	0.06	18.50	15.75	8.50	12.25	2.50	7.00	0.00	0.75	0.00	0.50	0.75	0.75	0.00	0.00	0.00	0.00	-0.192383	0.146973	1.846191	-19.950001	160.089996	6.090000	702.00	-0.30	-0.07
3.45	0.00	0.00	0.00	0.00	0.00	0.50	1.00	0.00	5.75	6.00	5.75	3.25	0.50	10.25	0.75	0.75	-2.313965	-0.078613	2.887695	1.330000	537.179993	-57.750000	356.00	0.27	0.06	18.25	15.50	9.25	13.00	4.00	8.50	0.25	1.25	0.00	0.25	1.25	1.25	0.50	0.00	0.00	0.00	-0.192383	0.146973	1.846191	-19.950001	160.089996	6.090000	770.00	-0.28	-0.08
3.46	0.00	0.25	0.00	0.50	0.00	0.75	0.50	0.00	5.25	4.75	4.75	3.00	0.25	9.00	0.50	0.50	-1.730469	0.176758	3.117676	13.090000	500.010010	-63.349998	310.00	0.26	0.05	18.00	15.75	10.00	13.75	5.25	9.50	0.25	2.00	0.00	0.50	1.00	1.00	0.75	0.00	0.00	0.00	-0.200195	-0.016602	1.426758	-62.230000	126.910004	9.100000	822.00	-0.27	-0.09
3.47	0.00	0.00	0.00	0.25	0.00	0.50	0.25	0.00	5.00	4.25	3.50	2.25	0.25	7.25	0.00	0.25	-1.659668	0.377441	3.157227	31.570000	464.239990	-59.500000	247.00	0.27	0.07	18.75	15.75	10.75	14.25	6.00	10.50	0.25	2.50	0.00	0.50	1.00	1.25	0.50	0.00	0.00	0.25	-0.184570	0.058105	1.311523	-81.830002	86.940002	1.190000	872.00	-0.27	-0.09
3.48	0.00	0.00	0.00	0.00	0.00	0.50	0.25	0.00	3.50	3.50	3.00	2.00	0.50	4.75	0.25	0.00	-0.698242	0.467773	3.645020	46.549999	428.959991	-67.760002	191.00	0.26	0.05	19.25	16.25	11.25	15.00	6.50	11.25	0.25	2.75	0.00	0.50	1.00	1.25	0.75	0.50	0.00	0.25	-0.180664	0.083008	1.049805	-86.169998	9.100000	3.360000	919.00	-0.26	-0.09
3.49	0.00	0.00	0.00	0.00	0.00	0.25	0.00	0.00	2.50	2.25	1.75	0.50	0.00	1.50	0.00	0.00	0.666016	0.354004	3.306641	81.760002	380.029999	-81.830002	95.00	0.25	0.09	19.75	16.25	11.50	15.00	7.00	12.00	0.25	3.25	0.00	0.50	1.00	1.25	0.75	0.50	0.00	0.25	-0.162109	0.050781	1.034668	-59.360001	-2.520000	3.290000	949.00	-0.26	-0.09
3.50	0.00	0.00	0.00	0.00	0.00	0.25	0.00	0.00	2.00	1.75	1.50	0.75	0.00	0.00	0.00	0.00	1.721191	0.068848	2.401367	87.080002	254.800003	-93.730003	71.00	0.22	0.05	20.25	16.50	12.00	15.50	7.50	12.50	0.50	3.25	0.00	0.50	1.00	1.00	0.75	0.25	0.00	0.25	-0.156250	0.081055	1.016602	-35.209999	-6.090000	2.380000	977.00	-0.26	-0.09
3.51	0.00	0.00	0.00	0.00	0.00	0.50	0.00	0.00	1.50	1.75	1.50	0.50	0.00	0.00	0.00	0.00	1.924316	0.955566	1.604492	58.590000	220.080002	-94.989998	64.00	0.21	0.03	20.50	16.75	12.25	16.00	8.00	13.25	0.50	3.50	0.00	0.75	1.00	1.25	1.00	0.50	0.00	0.25	-0.154297	0.065918	0.991211	-16.730000	-7.770000	2.870000	1017.00	-0.25	-0.09
3.52	0.00	0.00	0.00	0.50	0.00	0.25	0.00	0.00	1.25	1.75	1.25	0.50	0.00	0.00	0.00	0.00	1.599609	0.660645	3.683594	41.439999	73.779999	-85.750000	61.00	0.17	0.01	20.75	17.25	12.50	16.00	8.25	13.50	0.50	3.75	0.00	0.50	1.00	1.25	1.25	0.25	0.00	0.25	-0.147949	0.056641	0.985352	-8.330000	-8.330000	2.240000	1034.00	-0.26	-0.09
3.53	0.00	0.00	0.00	0.00	0.00	0.25	0.00	0.00	1.50	1.25	1.25	0.50	0.00	0.00	0.00	0.00	1.302246	0.553711	2.665527	60.130001	-94.919998	-68.110001	54.00	0.22	0.04	20.50	17.00	12.50	16.25	8.50	14.00	0.50	4.50	0.00	0.50	1.00	1.00	0.50	0.25	0.00	0.50	-0.145020	0.058594	0.984375	-5.670000	-8.610000	2.590000	1044.00	-0.25	-0.09
3.54	0.00	0.00	0.00	0.00	0.00	0.25	0.00	0.00	1.25	1.25	1.25	0.00	0.00	0.00	0.00	0.00	0.978027	0.356934	2.015137	54.459999	-188.720001	-54.740002	45.00	0.00	0.00	20.00	16.75	12.50	16.00	8.75	14.75	0.50	5.25	0.25	0.75	1.25	1.25	1.50	0.00	0.00	0.50	-0.133301	0.053223	0.980957	-4.200000	-8.890000	2.730000	1073.00	-0.24	-0.10
3.55	0.00	0.00	0.00	0.00	0.00	0.50	0.00	0.00	1.25	1.50	1.00	0.25	0.00	0.00	0.00	0.00	0.745605	0.350098	1.423828	54.459999	-235.410004	-41.580002	51.00	0.20	0.04	19.50	16.50	12.25	16.00	8.75	15.25	0.50	5.75	0.00	0.50	1.00	1.50	1.50	0.50	0.00	0.50	-0.137207	0.054688	0.983887	-2.310000	-9.240000	2.380000	1074.00	-0.24	-0.11
3.56	0.00	0.00	0.00	0.00	0.00	0.50	0.00	0.00	1.25	1.00	1.25	0.00	0.00	0.00	0.00	0.00	0.589355	0.326172	1.084961	55.439999	-256.480011	-29.820000	45.00	0.00	0.00	18.25	15.75	12.00	15.75	9.00	15.75	0.50	6.50	0.00	0.50	1.50	1.75	1.50	0.00	0.00	0.50	-0.135254	0.057617	0.983398	-1.120000	-9.520000	2.660000	1072.00	-0.23	-0.11
3.57	0.00	0.00	0.00	0.00	0.00	0.25	0.00	0.00	1.25	1.00	1.00	0.00	0.00	0.00	0.00	0.00	0.487305	0.313477	0.904297	56.490002	-268.730011	-19.250000	40.00	0.00	0.00	16.25	15.00	11.25	15.50	8.50	16.00	0.50	7.25	0.00	0.50	1.50	1.75	2.50	0.25	0.00	0.75	-0.140137	0.062500	0.991699	0.490000	-8.610000	3.010000	1054.00	-0.22	-0.13
3.58	0.00	0.00	0.00	0.00	0.00	0.50	0.00	0.00	1.00	1.00	1.25	0.00	0.00	0.00	0.00	0.00	0.392578	0.313965	0.913574	58.170002	-281.399994	-7.350000	42.00	0.00	0.00	14.25	13.75	10.50	14.75	8.25	16.25	0.50	7.75	0.00	0.75	1.25	1.75	2.75	0.25	0.00	1.00	-0.137695	0.057129	0.980469	2.100000	-7.210000	3.500000	1017.00	-0.21	-0.13
3.59	0.00	0.00	0.00	0.00	0.00	0.25	0.00	0.00	0.75	1.00	1.00	0.00	0.00	0.00	0.00	0.00	0.312988	0.266113	0.940430	58.240002	-297.779999	6.090000	33.00	0.00	0.00	12.25	12.50	9.75	14.25	8.25	16.50	0.50	8.50	0.00	0.50	1.25	2.25	3.50	0.25	0.00	1.25	-0.125977	0.067383	0.993652	2.730000	-6.300000	3.990000	995.00	-0.20	-0.15
3.60	0.00	0.00	0.00	0.00	0.00	0.25	0.00	0.00	1.00	1.00	0.75	0.00	0.00	0.00	0.00	0.00	0.204102	0.246582	1.010254	55.930000	-315.980011	20.090000	34.00	0.00	0.00	9.75	11.25	9.00	13.25	7.75	16.75	0.50	9.00	0.00	0.50	1.50	2.00	4.00	0.25	0.00	1.25	-0.136719	0.070312	0.990234	2.590000	-5.530000	4.130000	948.00	-0.18	-0.16
3.61	0.00	0.00	0.00	0.00	0.00	0.00	0.00	0.00	0.50	0.00	0.50	0.00	0.00	0.00	0.00	0.00	0.127441	0.221191	1.009277	50.750000	-332.920013	33.180000	12.00	0.00	0.00	8.25	10.00	8.00	12.50	7.50	16.75	0.50	9.50	0.00	0.75	2.00	2.25	5.00	0.25	0.00	1.25	-0.124512	0.065430	0.992188	1.960000	-4.970000	3.920000	925.00	-0.17	-0.17
3.62	0.00	0.00	0.00	0.00	0.00	0.00	0.00	0.00	0.50	0.25	0.50	0.00	0.00	0.00	0.00	0.00	0.062012	0.212891	0.996582	46.200001	-347.130005	43.680000	14.00	0.00	0.00	7.00	8.50	7.50	11.50	7.25	16.75	0.50	9.75	0.00	0.75	1.75	2.50	5.25	0.25	0.00	1.50	-0.137695	0.068848	0.992676	1.120000	-4.410000	3.360000	887.00	-0.15	-0.18
3.63	0.00	0.00	0.00	0.00	0.00	0.25	0.00	0.00	0.50	0.25	0.75	0.00	0.00	0.00	0.00	0.00	-0.114258	0.226074	1.229980	54.599998	-367.989990	51.939999	20.00	0.00	0.00	6.00	7.75	6.75	11.00	6.75	16.75	0.50	10.25	0.00	0.50	2.00	2.50	6.00	0.00	0.25	1.50	-0.141602	0.073730	0.976562	-0.140000	-4.410000	2.800000	865.00	-0.14	-0.19
3.64	0.00	0.00	0.00	0.00	0.00	0.25	0.00	0.00	0.50	0.25	0.00	0.00	0.00	0.00	0.00	0.00	-0.218262	0.226074	1.416016	54.599998	-367.989990	51.939999	12.00	0.00	0.00	5.25	7.00	6.25	10.25	6.50	16.75	0.50	10.50	0.00	1.00	2.00	2.75	7.00	0.50	0.00	1.75	-0.138184	0.066895	0.983398	-1.400000	-4.970000	1.680000	857.00	-0.13	-0.20
3.65	0.00	0.00	0.00	0.00	0.00	0.25	0.00	0.00	0.25	0.25	0.25	0.00	0.00	0.00	0.00	0.00	-0.345215	0.134766	1.562012	91.699997	-386.540009	42.000000	11.00	0.00	0.00	4.25	5.75	5.50	9.50	6.25	16.50	0.50	10.75	0.00	1.00	2.25	3.00	7.75	0.00	0.25	2.00	-0.134766	0.071289	0.983398	-2.800000	-5.530000	0.630000	828.00	-0.11	-0.21
3.66	0.00	0.00	0.00	0.00	0.00	0.25	0.00	0.00	0.25	0.00	0.50	0.00	0.00	0.00	0.00	0.00	-0.554688	0.083008	1.704102	111.370003	-394.519989	34.230000	11.00	0.00	0.00	3.75	5.25	5.00	9.00	6.00	16.25	0.50	11.00	0.00	1.25	2.50	3.50	8.00	0.25	0.25	2.00	-0.131836	0.072754	0.982910	-3.570000	-5.880000	-0.000000	820.00	-0.10	-0.22
3.67	0.00	0.00	0.00	0.00	0.00	0.25	0.00	0.00	0.25	0.25	0.25	0.00	0.00	0.00	0.00	0.00	-0.775879	-0.028809	1.704590	132.720001	-400.049988	28.559999	11.00	0.00	0.00	3.00	5.00	4.50	8.50	5.75	16.00	0.50	11.00	0.00	1.25	2.75	3.75	8.00	0.25	0.25	2.25	-0.138672	0.066895	0.984375	-4.550000	-6.440000	-0.560000	800.00	-0.09	-0.22
3.68	0.00	0.00	0.00	0.25	0.00	0.25	0.00	0.00	0.25	0.00	0.25	0.00	0.00	0.00	0.00	0.00	-0.904785	-0.180176	1.737793	148.190002	-398.860016	25.620001	11.00	0.00	0.00	2.50	4.25	4.25	8.25	5.75	15.25	0.50	11.00	0.00	1.25	3.00	3.75	8.50	0.50	0.25	2.50	-0.129883	0.067383	0.982910	-7.770000	-6.930000	-1.680000	785.00	-0.08	-0.23
3.69	0.00	0.00	0.00	0.00	0.00	0.25	0.00	0.00	0.50	0.00	0.25	0.00	0.00	0.00	0.00	0.00	-1.005371	-0.303711	1.776855	146.300003	-390.390015	26.880001	12.00	0.00	0.00	2.25	3.50	3.75	7.50	5.50	14.75	0.50	10.75	0.00	1.75	3.25	4.25	8.50	0.75	0.50	2.50	-0.133789	0.069336	0.983887	-9.170000	-7.000000	-2.660000	768.00	-0.06	-0.23
3.70	0.00	0.00	0.00	0.00	0.00	0.00	0.00	0.00	0.25	0.00	0.25	0.00	0.00	0.00	0.00	0.00	-1.075195	-0.399414	1.806641	131.389999	-380.239990	32.270000	6.00	0.00	0.00	2.25	3.25	3.25	7.25	5.50	14.00	0.50	10.75	0.50	1.75	3.50	4.25	8.75	0.50	0.75	2.50	-0.136230	0.070801	0.981934	-10.010000	-7.000000	-3.220000	761.00	-0.05	-0.22
